acc_x, acc_y, angular_z, stamp, 
-0.053743064403533936, 0.01805204153060913, 1.4043409165600878e-10, 1759519683136070090, 
-0.03623479604721069, 0.0011510848999023438, 8.570130105373518e-11, 1759519683286335564, 
0.014191985130310059, -0.009720683097839355, 1.0097123460232633e-06, 1759519683315855372, 
0.04258173704147339, -0.02580481767654419, 1.0322636505670084e-06, 1759519683344728728, 
-0.024420440196990967, -0.009376108646392822, -3.256448384934497e-11, 1759519683375710267, 
-0.03853738307952881, 0.003467261791229248, -4.2004649959899867e-11, 1759519683405847090, 
0.019377827644348145, 0.016084790229797363, 1.556237725198731e-11, 1759519683436862069, 
0.03558927774429321, -0.02159219980239868, 1.0003478413366128e-06, 1759519683466654959, 
-0.007791399955749512, 0.0036536455154418945, 7.061500405003041e-12, 1759519683498622654, 
-0.023898839950561523, -0.00878208875656128, 1.38341321127188e-12, 1759519683524771689, 
-0.01255810260772705, -0.012251496315002441, -1.0187786056693272e-11, 1759519683555388257, 
0.041660308837890625, -0.003229796886444092, -2.6664462121151327e-11, 1759519683585294779, 
0.03076028823852539, -0.012103497982025146, 9.932886749455667e-07, 1759519683615297434, 
-0.04304087162017822, -0.01566106081008911, -3.545973125840197e-11, 1759519683645252889, 
-0.03900104761123657, 0.013250470161437988, 9.954225581458008e-07, 1759519683675190055, 
0.02271789312362671, 0.014423787593841553, -5.89524106325498e-11, 1759519683707503395, 
0.017662763595581055, 0.014737963676452637, -0.0016346697708656893, 1759519683737858680, 
-0.7069268822669983, 0.15436184406280518, 0.034596637462251965, 1759519683764045598, 
-0.14879000186920166, 0.5834214687347412, 0.38984831426504896, 1759519683794982089, 
-0.2562839984893799, 1.2254682779312134, 0.7537948861266047, 1759519683824878468, 
0.2280460000038147, -0.24910789728164673, 1.0143127666402774, 1759519683854811122, 
-0.9316858649253845, 0.6628446578979492, 1.22066947016933, 1759519683884774796, 
0.7377625107765198, 0.470304012298584, 1.4632328421953187, 1759519683914919557, 
-0.9878976941108704, 0.1320149302482605, 1.5621743028754809, 1759519683946948297, 
0.8129015564918518, -0.08072203397750854, 1.934607787781773, 1759519683975788964, 
-1.3834245204925537, 0.24548310041427612, 2.055718936449859, 1759519684004712178, 
0.4134490489959717, -0.026683330535888672, 2.087648950665917, 1759519684034611573, 
0.1370481252670288, -0.08206236362457275, 2.0680598491309845, 1759519684064790150, 
-0.11958485841751099, -0.6499382257461548, 2.060077355014699, 1759519684094453445, 
-0.21165525913238525, -0.021619796752929688, 1.9751015426865888, 1759519684124399101, 
0.3215230107307434, 0.32176363468170166, 1.844141941254464, 1759519684155386230, 
-0.539361834526062, -0.3236905336380005, 1.7706035604749517, 1759519684187073539, 
0.3555545210838318, -0.07972437143325806, 2.0334739224081213, 1759519684214328116, 
-0.37514716386795044, 0.6836636066436768, 1.8274799759258036, 1759519684244270552, 
0.3940843343734741, 0.5786409378051758, 1.8764425618643608, 1759519684274441477, 
-0.7576780319213867, -0.6981399059295654, 1.9150683008692253, 1759519684304192442, 
-0.6482622623443604, 0.22188222408294678, 1.9157832821653347, 1759519684334110119, 
-0.15856468677520752, 0.8194282650947571, 2.0046234342835256, 1759519684363083522, 
-0.7376501560211182, -0.7626128196716309, 1.8593049504839807, 1759519684394989181, 
-0.5499299168586731, -0.4986227750778198, 1.8207519129628356, 1759519684427071421, 
0.46299123764038086, -0.07320666313171387, 2.0737292430320027, 1759519684463880848, 
-0.6765773296356201, 0.655142605304718, 1.8879917876745556, 1759519684493778761, 
0.5240947008132935, 0.3707057237625122, 1.9113144055454898, 1759519684523777795, 
-0.7257286310195923, -0.23478376865386963, 1.8266550006894617, 1759519684554936630, 
-0.5634841918945312, -0.3533419966697693, 1.7658538392898588, 1759519684587003752, 
0.27137213945388794, 0.627695620059967, 2.178853843953055, 1759519684613673735, 
-0.49009352922439575, 0.21858781576156616, 1.9273856789697639, 1759519684643535916, 
0.2720911502838135, -0.10030090808868408, 1.6322998029327942, 1759519684667227745, 
0.5421611666679382, 0.2937052845954895, 2.2291642483007608, 1759519684693534796, 
-0.8394482135772705, 0.10191953182220459, 1.9006054737251263, 1759519684723469495, 
0.24743491411209106, -0.030262529850006104, 1.8882182239456242, 1759519684753370132, 
-0.6852105855941772, -0.37264710664749146, 1.915036976009876, 1759519684783413668, 
0.37399303913116455, 0.06306278705596924, 1.9218282079337194, 1759519684813327783, 
-0.6131788492202759, 0.2992335557937622, 1.921137281128014, 1759519684843258371, 
-0.1572827696800232, 0.32985353469848633, 1.792071098754268, 1759519684874980641, 
-0.1804637908935547, -0.07817727327346802, 1.8933672455180075, 1759519684906011756, 
-0.4012286067008972, -0.3867536187171936, 2.150139424775797, 1759519684933137897, 
-1.1312477588653564, -0.2588285207748413, 1.8910468371891584, 1759519684963103453, 
0.16853153705596924, 0.08340030908584595, 1.6846782586874733, 1759519684985652424, 
-0.5689623951911926, 0.32504141330718994, 2.029932224784206, 1759519685022982661, 
0.47747260332107544, 0.38519608974456787, 1.8952524652599223, 1759519685052937500, 
-0.053314924240112305, -0.3050723075866699, 1.9152657009110294, 1759519685083213414, 
-0.7137985825538635, -0.4699528217315674, 1.767664169085351, 1759519685115375814, 
0.3955644369125366, 0.31442511081695557, 2.0744649661897863, 1759519685142828758, 
-0.23796969652175903, 0.10134446620941162, 1.948013614074837, 1759519685172719961, 
-0.49662506580352783, 0.07533383369445801, 1.948124690055898, 1759519685202663559, 
-0.27025681734085083, 0.312654972076416, 1.9158599815834163, 1759519685232609695, 
-0.4937456250190735, 0.20299899578094482, 1.9012721327857613, 1759519685262954472, 
0.39910703897476196, 0.09752494096755981, 1.970659724343104, 1759519685292508420, 
0.07688015699386597, -0.3647683262825012, 1.9017493214669492, 1759519685322793704, 
-0.7714269161224365, -0.16342830657958984, 1.722554109376233, 1759519685355229589, 
0.5268508195877075, 0.0047414302825927734, 2.053245450864736, 1759519685382467174, 
-0.9100721478462219, 0.5326389670372009, 1.8874893967683877, 1759519685412466828, 
0.527213454246521, 0.08160394430160522, 1.8872343968618912, 1759519685442267411, 
-0.404493510723114, 0.21405291557312012, 1.9187881741193866, 1759519685472248908, 
0.033575236797332764, 0.15499848127365112, 1.9519527211973065, 1759519685502226276, 
-0.05059593915939331, -0.15022510290145874, 1.934413327372604, 1759519685532140151, 
-1.0666749477386475, 0.2795946002006531, 1.8792058992113037, 1759519685562173269, 
0.25329864025115967, -0.1652732491493225, 1.7960775600792622, 1759519685594304292, 
0.20111924409866333, -0.08053332567214966, 2.110150677952513, 1759519685621991190, 
-0.15710461139678955, 0.2189127802848816, 1.8992451666741113, 1759519685651950856, 
0.113444983959198, 0.04701322317123413, 1.8716867832331616, 1759519685681923929, 
-1.1377688646316528, -0.48581570386886597, 1.9049217016113085, 1759519685712129703, 
-0.33554577827453613, 0.0026267170906066895, 1.9388815234012309, 1759519685741918710, 
-0.312103271484375, 0.03146934509277344, 1.9261748598425563, 1759519685771889021, 
-0.7739207744598389, -0.15206414461135864, 1.912290750402772, 1759519685801749737, 
-0.8450649976730347, 0.03921538591384888, 1.7123553231531776, 1759519685834455687, 
0.2098454236984253, -0.06327801942825317, 2.013619812123944, 1759519685862365718, 
0.1229243278503418, -0.4706255793571472, 1.962753001333665, 1759519685891610786, 
0.05194586515426636, 0.23424774408340454, 1.8891877187633679, 1759519685921608540, 
1.0148752927780151, 0.2896451950073242, 1.8706815891475583, 1759519685951544124, 
-0.8542423844337463, -0.08061742782592773, 1.9322068223630529, 1759519685981433049, 
-0.6188194751739502, -0.184764564037323, 1.9588020341862198, 1759519686011416215, 
-0.11298912763595581, 0.4517693519592285, 1.8467993628269943, 1759519686042817831, 
0.856450617313385, -0.21295785903930664, 1.8297550240209817, 1759519686073924283, 
-0.5564224123954773, 0.08375072479248047, 2.009151632584956, 1759519686111258609, 
0.21335673332214355, 0.38197779655456543, 1.8617948615640052, 1759519686141294006, 
-0.21154165267944336, 0.5254876613616943, 1.9271989322286118, 1759519686171128197, 
-0.39368700981140137, -0.10942578315734863, 1.8918301007649152, 1759519686202024416, 
0.5500604510307312, 0.5912193059921265, 1.8963551597951476, 1759519686233041454, 
-0.7209095358848572, 0.21575438976287842, 2.10016773583701, 1759519686261037744, 
-0.5626695156097412, 0.035943031311035156, 1.922126719479445, 1759519686290972273, 
-0.09892868995666504, 0.5325600504875183, 1.890046631692441, 1759519686320903769, 
-0.5870451927185059, 0.19280576705932617, 1.8352980946562323, 1759519686350819846, 
-1.1451385021209717, 0.051436424255371094, 1.8218405564878108, 1759519686380803962, 
0.13528740406036377, 0.302693247795105, 1.886873998726429, 1759519686411073037, 
-0.99574875831604, 0.04636204242706299, 1.7993485637754771, 1759519686443246509, 
-0.37604743242263794, -0.5144379138946533, 2.1731237496045432, 1759519686469756668, 
-0.3652084469795227, 0.3742451071739197, 1.8894036433152817, 1759519686500615321, 
-0.3131442666053772, -0.3028793931007385, 1.9210249615488963, 1759519686530537162, 
0.28389668464660645, 0.1748841404914856, 1.8675672291407222, 1759519686560840794, 
0.01649940013885498, 0.42247605323791504, 1.9358533566166298, 1759519686590480196, 
-0.5183233022689819, 0.7345914244651794, 1.8761155987783587, 1759519686620433213, 
-1.151728630065918, 0.5352782607078552, 1.79607585089591, 1759519686651336744, 
0.600739061832428, 0.6762286424636841, 1.8319261466879289, 1759519686682842239, 
-0.7227826118469238, 0.324951171875, 2.1258832838678945, 1759519686710265298, 
-0.08030146360397339, -0.126836895942688, 1.9725740923203552, 1759519686740251818, 
-0.9788652658462524, 0.5617548227310181, 1.9708356944172487, 1759519686770160611, 
-0.4460000991821289, -0.611202597618103, 2.0003226208024594, 1759519686800094726, 
-0.13586074113845825, 0.014003932476043701, 1.9996199436788566, 1759519686830061444, 
0.6801360249519348, 0.38072359561920166, 1.9917242519973357, 1759519686860053313, 
0.9208850264549255, 0.3719489574432373, 1.8652874213470363, 1759519686891411895, 
0.6496126651763916, 0.602645993232727, 1.800169823883011, 1759519686922850677, 
-0.39647728204727173, 0.7229762077331543, 2.0654019312254395, 1759519686949929600, 
-0.7847244143486023, -0.09750884771347046, 1.85545006553267, 1759519686979853507, 
-0.013712942600250244, -0.0368991494178772, 1.8839709646334042, 1759519687009786140, 
-0.32399189472198486, 0.5299753546714783, 1.9038219153368066, 1759519687039782058, 
0.27479732036590576, -0.25464928150177, 1.9017224642766628, 1759519687069898495, 
-0.4810234308242798, 0.30824410915374756, 1.949637976075695, 1759519687099670087, 
-0.10453963279724121, 0.8191313743591309, 1.847566481465864, 1759519687131096354, 
0.40530508756637573, 0.14984130859375, 1.8381129508100273, 1759519687162777010, 
0.3799808621406555, 0.11957412958145142, 2.213010492639299, 1759519687189596118, 
-0.8001217246055603, 0.7906311750411987, 1.9574086275232354, 1759519687219533600, 
-0.4656122326850891, 0.37995773553848267, 1.9452508969683564, 1759519687249510923, 
-0.27981048822402954, 0.049007952213287354, 1.9791386872647412, 1759519687279466029, 
0.30815863609313965, 0.08658891916275024, 2.0055707700368686, 1759519687309339730, 
0.41349977254867554, 0.6351147294044495, 1.9937369904507967, 1759519687339281689, 
0.8830196857452393, 0.7746748328208923, 1.8824763387333334, 1759519687370867363, 
0.25622373819351196, 0.04610717296600342, 1.8514656427639558, 1759519687401723492, 
-0.2778090834617615, -0.3190794587135315, 2.1004803697398065, 1759519687429095246, 
-0.12015348672866821, 0.4600065350532532, 1.9219955956027919, 1759519687459104509, 
0.14200115203857422, 0.7798402309417725, 1.85358543684976, 1759519687489008931, 
-0.6646825671195984, 0.08675378561019897, 1.7984778324470234, 1759519687518986406, 
0.257546067237854, -0.1141655445098877, 1.7405916927600316, 1759519687549002300, 
-0.19377058744430542, 0.5070450901985168, 1.7307990927184953, 1759519687578884811, 
-0.06304365396499634, 0.48683422803878784, 1.6377991425123786, 1759519687611149024, 
0.2582781910896301, 0.4188397526741028, 1.8566431335290088, 1759519687640911235, 
-0.4941168427467346, 0.34250909090042114, 2.0351179820846967, 1759519687677736357, 
0.20132505893707275, 0.23912662267684937, 1.842642487638876, 1759519687707751590, 
-0.4950299859046936, 0.22548788785934448, 1.784427302989095, 1759519687738901985, 
-0.5317158102989197, 0.4973873496055603, 1.694786480506258, 1759519687771178588, 
0.3593675494194031, -0.17441105842590332, 1.9344299623562748, 1759519687798618976, 
-0.4193393588066101, 0.2433704137802124, 1.7565054339622428, 1759519687828514388, 
-1.001218557357788, 0.7117550373077393, 1.720047409614144, 1759519687858439589, 
0.13767403364181519, 0.5145235657691956, 1.744271791163301, 1759519687888398797, 
-0.9856781363487244, 0.27139800786972046, 1.7870472900902696, 1759519687918374189, 
-0.5030249953269958, 0.09691745042800903, 1.8160311682051091, 1759519687948310346, 
0.30360227823257446, 0.20548272132873535, 1.7301941252604915, 1759519687979364964, 
-1.0809317827224731, 0.05442607402801514, 1.6829797155282746, 1759519688010833457, 
-0.567240297794342, 0.7180579304695129, 1.884509702327945, 1759519688038198842, 
0.26458054780960083, 0.37932920455932617, 1.7227979045151922, 1759519688068111448, 
-1.5910077095031738, -0.09949719905853271, 1.7242559703527172, 1759519688098069108, 
-1.1555784940719604, 0.6260581016540527, 1.709499752176519, 1759519688128077728, 
1.2755440473556519, 0.38465428352355957, 1.7416075677179716, 1759519688158186071, 
-0.30528348684310913, 0.011406481266021729, 1.7735260262281463, 1759519688187993243, 
0.28330373764038086, -0.14184612035751343, 1.6445970499546019, 1759519688219293258, 
-0.7362354397773743, 0.3071712851524353, 1.5886236129611235, 1759519688250848650, 
-0.33560454845428467, 0.7878717184066772, 1.8136369202993334, 1759519688278038969, 
0.40285617113113403, 0.7591021656990051, 1.6398215193147914, 1759519688307878105, 
-1.2431477308273315, -0.2781224846839905, 1.627889036887799, 1759519688337833515, 
-0.6584652662277222, 0.1299508810043335, 1.6286062771423793, 1759519688367908853, 
0.2710026502609253, 0.4056742787361145, 1.7590034357892403, 1759519688396745085, 
-0.2604842782020569, 0.9105902910232544, 1.6200363805813698, 1759519688427802910, 
0.21522390842437744, -0.024095118045806885, 1.5695998530510096, 1759519688458923605, 
-0.47716134786605835, -0.04577362537384033, 1.5141843912021227, 1759519688490553668, 
-0.36089497804641724, 0.38306623697280884, 1.773916476161337, 1759519688517657607, 
0.6902309656143188, 0.2377469539642334, 1.6129064073549377, 1759519688547672770, 
-0.19302457571029663, 1.0523219108581543, 1.5938248501344414, 1759519688577617387, 
-0.4393901228904724, 0.17643439769744873, 1.572138365902553, 1759519688607724384, 
-0.08008432388305664, -0.3355160355567932, 1.6233764889808275, 1759519688637697943, 
0.11685431003570557, 0.31113898754119873, 1.6111010044554028, 1759519688667665902, 
0.9133616089820862, 0.7315399646759033, 1.4949767201669593, 1759519688698946042, 
-0.34293127059936523, -0.13644850254058838, 1.5534731343581953, 1759519688729175069, 
-0.18439030647277832, 0.1947501301765442, 1.735211852648562, 1759519688756730717, 
-0.07282394170761108, 0.48758143186569214, 1.560473611469974, 1759519688787648700, 
-1.7758480310440063, 0.5330830216407776, 1.572270625620996, 1759519688817471906, 
-0.18212920427322388, 0.4274539351463318, 1.5346670792745725, 1759519688847662831, 
-0.2780330777168274, -0.047918617725372314, 1.5716436049029368, 1759519688877474270, 
0.6308797001838684, -0.1569657325744629, 1.5515072997762915, 1759519688907489423, 
-0.29585689306259155, 0.7609903216362, 1.427766926031986, 1759519688939532580, 
-0.5994476079940796, 0.5737419724464417, 1.7206979885554923, 1759519688965839718, 
-0.5731958746910095, 0.17487812042236328, 1.5097652572425866, 1759519688996631873, 
-0.07399123907089233, 0.2648254632949829, 1.576667271240068, 1759519689026583850, 
-1.3664480447769165, 0.7037340998649597, 1.5744579023122525, 1759519689056562925, 
0.18169748783111572, -0.019658386707305908, 1.5663767154552897, 1759519689086546119, 
-0.3044632077217102, 0.1937316656112671, 1.54526467514915, 1759519689116416164, 
0.1155325174331665, 0.15508723258972168, 1.4724943178615195, 1759519689147159182, 
-0.3867698907852173, 0.44565320014953613, 1.4158264666602791, 1759519689178977492, 
-0.21594995260238647, 0.03693807125091553, 1.6645952902762378, 1759519689206359552, 
0.21911615133285522, 0.5793111324310303, 1.5455553534446922, 1759519689236290926, 
0.22244614362716675, 0.48950958251953125, 1.4736001301621693, 1759519689266273668, 
-1.1363515853881836, 0.20373576879501343, 1.4605170941594567, 1759519689296138416, 
-0.5132730007171631, -0.20910757780075073, 1.4847878127433936, 1759519689326113811, 
-0.37879735231399536, 0.3676435947418213, 1.5048743548228005, 1759519689356061103, 
0.33132070302963257, 0.4967755079269409, 1.3974760698547541, 1759519689387944480, 
-0.4029364585876465, 0.4686205983161926, 1.4273722594702971, 1759519689419023210, 
-0.37727218866348267, -0.015434503555297852, 1.6292784842647916, 1759519689445937536, 
-0.4064265489578247, -0.008746564388275146, 1.4736171924822306, 1759519689475831345, 
-0.13308829069137573, 0.8591652512550354, 1.4893577616050238, 1759519689505833784, 
-0.9089911580085754, 0.12971210479736328, 1.4534795500614885, 1759519689535803114, 
-0.2962714433670044, 0.1956557035446167, 1.454912833364118, 1759519689565701302, 
-0.22563832998275757, 0.769507110118866, 1.519111901199741, 1759519689594734657, 
0.12847846746444702, 0.013254642486572266, 1.3252409080186536, 1759519689627146600, 
-0.854159951210022, 0.288729190826416, 1.3249274788291119, 1759519689659020576, 
-0.1696276068687439, 0.2787081003189087, 1.614803813698045, 1759519689685626339, 
-0.10183173418045044, 0.09710288047790527, 1.4546298180923405, 1759519689715502565, 
0.10311412811279297, 0.36757248640060425, 1.4338217184888284, 1759519689745415320, 
-0.9663323163986206, 0.25049251317977905, 1.4368587571080809, 1759519689775434337, 
0.02546060085296631, 0.319643497467041, 1.4762891974865502, 1759519689804299613, 
-0.402910053730011, 0.5388757586479187, 1.3515377098188914, 1759519689835657358, 
1.003550410270691, 0.21234029531478882, 1.3680422511452048, 1759519689867217010, 
-0.7401493191719055, -0.07108205556869507, 1.4353013007939193, 1759519689896800242, 
-0.37715816497802734, 0.4889489412307739, 1.4690630760149124, 1759519689925109488, 
-0.3234987258911133, 0.7873464822769165, 1.3963711726757753, 1759519689955088052, 
-0.8662722706794739, 0.24517059326171875, 1.3887240593454098, 1759519689985032818, 
-0.19184273481369019, 0.04206585884094238, 1.4000424751505094, 1759519690015014753, 
0.4928175210952759, 0.38029956817626953, 1.4435102913027142, 1759519690044947762, 
-0.6185880303382874, 0.20835506916046143, 1.3749817990645201, 1759519690075260295, 
0.5139515399932861, 0.0968550443649292, 1.2813628538799466, 1759519690107132595, 
-0.5177478194236755, 0.470447838306427, 1.4836681404740075, 1759519690134910826, 
0.1199445128440857, 0.3111608028411865, 1.3706916378154195, 1759519690165054805, 
0.03302711248397827, 0.2233838438987732, 1.399547542774927, 1759519690194817426, 
0.030292928218841553, 0.4715074300765991, 1.384708658418491, 1759519690224714737, 
0.4609546661376953, 0.03938084840774536, 1.3577285491322924, 1759519690254614473, 
0.1275692582130432, -0.027536511421203613, 1.390722790839821, 1759519690284538133, 
-0.6076885461807251, 1.0430101156234741, 1.336923159755091, 1759519690315238708, 
1.2297059297561646, 0.18632662296295166, 1.2365111624876086, 1759519690348135234, 
-0.18138819932937622, -0.09411615133285522, 1.5021712825357305, 1759519690374489228, 
-0.2918720245361328, 0.48752498626708984, 1.3067034956757697, 1759519690404348007, 
0.5118374824523926, 0.27227044105529785, 1.2946867327706941, 1759519690434313865, 
-0.4021174907684326, 0.30631136894226074, 1.3008336379192187, 1759519690464278961, 
-0.18847990036010742, 0.7864007949829102, 1.292788148943621, 1759519690494253703, 
1.166107177734375, -0.09899675846099854, 1.3547219797549606, 1759519690524224647, 
-0.7328814268112183, 0.09345448017120361, 1.2809872662027113, 1759519690556169166, 
0.5940982699394226, 0.819331705570221, 1.3082016525186495, 1759519690586913690, 
-0.13983339071273804, 0.2595837712287903, 1.4060812958048223, 1759519690614260734, 
-0.26715177297592163, 0.22710847854614258, 1.239933026123047, 1759519690644390890, 
0.3768077492713928, 0.24415481090545654, 1.25330545879154, 1759519690674223915, 
-0.4777393341064453, 0.32246094942092896, 1.2892697983278474, 1759519690703897823, 
0.20500195026397705, 0.5780205726623535, 1.3277881363172375, 1759519690733827117, 
0.2811393141746521, 0.5286296010017395, 1.3659005670948916, 1759519690763828450, 
-0.43612945079803467, -0.18040680885314941, 1.2360306298492643, 1759519690796106528, 
1.3420406579971313, 0.09964162111282349, 1.3286542860885782, 1759519690825791914, 
-0.22056585550308228, 0.22380167245864868, 1.394787008453338, 1759519690853719253, 
-0.5945959091186523, 0.46675533056259155, 1.3363302088360864, 1759519690883630043, 
1.121384859085083, 1.6406140327453613, 1.1236328583229964, 1759519690906221718, 
-0.3930748701095581, -0.4122686982154846, 1.2747273171426452, 1759519690943551185, 
-0.14564955234527588, -0.01972132921218872, 1.2215309533116274, 1759519690973464319, 
0.5969544649124146, 0.40776365995407104, 1.2909809509489028, 1759519691003453308, 
-0.0786890983581543, 0.9145375490188599, 1.2226402411810775, 1759519691035270393, 
-0.4234856367111206, -0.0973082184791565, 1.2308364710559527, 1759519691065846950, 
0.1322026252746582, 0.08649128675460815, 1.3444307506652593, 1759519691093290409, 
-0.24873745441436768, 0.15546905994415283, 1.2399966935360474, 1759519691123279169, 
0.8595066666603088, 0.6204915046691895, 1.2704499691718132, 1759519691153164522, 
-0.9675612449645996, 0.4873202443122864, 1.2594203652651492, 1759519691183141159, 
-0.881223201751709, 0.0364762544631958, 1.249770930467838, 1759519691213164162, 
-0.6465446949005127, -0.08687770366668701, 1.2047432492735934, 1759519691243724305, 
0.015181660652160645, 0.42985105514526367, 1.1622823092267334, 1759519691275290507, 
-0.2369862198829651, 0.5914819240570068, 1.3190635614268202, 1759519691303031472, 
-0.22517240047454834, 0.20757687091827393, 1.215414209516098, 1759519691332865117, 
-0.6244415044784546, 0.2889532446861267, 1.2300536359888492, 1759519691362832432, 
-0.46670687198638916, 0.3697367310523987, 1.2417378321721273, 1759519691392808618, 
-0.8931943774223328, 0.4410005807876587, 1.2332283478931636, 1759519691422805454, 
0.16153818368911743, 0.24524086713790894, 1.2509781298965736, 1759519691452954952, 
-0.27013981342315674, 0.5569062232971191, 1.2377544399683085, 1759519691483081630, 
-0.18109172582626343, 0.17603212594985962, 1.1242801764340375, 1759519691515306559, 
-0.38884806632995605, -0.13617956638336182, 1.3178725065258123, 1759519691542622326, 
0.22342389822006226, 0.607345700263977, 1.190878108152706, 1759519691572528733, 
-0.3090507388114929, 0.43725717067718506, 1.1981757853329769, 1759519691602530975, 
0.4212038516998291, 0.6456659436225891, 1.2002113383274953, 1759519691632710880, 
0.6067898869514465, 0.19595783948898315, 1.270301803362745, 1759519691661744871, 
-0.8145586848258972, 0.8085157871246338, 1.1787271210757893, 1759519691692865177, 
-0.08156192302703857, -0.4627106785774231, 1.178223042325757, 1759519691723158527, 
0.05408531427383423, 0.3356729745864868, 1.1030727488432583, 1759519691755926478, 
-0.2037314772605896, 0.6141353845596313, 1.355138759779908, 1759519691782766497, 
0.08381742238998413, 0.4297638535499573, 1.187219027026717, 1759519691812709406, 
-0.9232091307640076, 0.13514244556427002, 1.1610717270231663, 1759519691842664742, 
-0.706364631652832, 0.15632003545761108, 1.2099567578335773, 1759519691871760376, 
0.9660129547119141, -0.10167151689529419, 1.1161141708057425, 1759519691902677186, 
-0.7084057331085205, 0.6261555552482605, 1.1515767666369947, 1759519691932660238, 
-0.4857032299041748, 0.7136577367782593, 1.116061153093452, 1759519691963090487, 
-0.23349571228027344, 0.14187932014465332, 1.0757714487168089, 1759519691994521905, 
-0.3275439143180847, -0.09846794605255127, 1.2507101165198053, 1759519692021826260, 
0.23926222324371338, 0.6205013990402222, 1.1876783195633822, 1759519692050725273, 
-0.023988962173461914, 0.33888888359069824, 1.1517622566948582, 1759519692080731225, 
-0.7091386914253235, 0.23217874765396118, 1.1070820705680187, 1759519692111696009, 
0.29564160108566284, 0.0681270956993103, 1.1464434222877513, 1759519692141784004, 
-0.06006205081939697, 0.16775643825531006, 1.1840014444155054, 1759519692171574573, 
-0.07383203506469727, 0.8536619544029236, 1.0962229762009512, 1759519692203535368, 
0.4800947904586792, 0.4101044535636902, 1.1195697159613338, 1759519692233585129, 
-0.5302881002426147, 0.09765100479125977, 1.2593906925630056, 1759519692260416954, 
-0.33014625310897827, 0.36345672607421875, 1.0870206255013521, 1759519692291412176, 
0.9576786756515503, 0.5308427810668945, 1.1291074974118651, 1759519692321373638, 
0.5671095252037048, 0.1529628038406372, 1.1229961034797549, 1759519692351293930, 
1.1690447330474854, 0.5830960273742676, 1.116835605068171, 1759519692381255500, 
-0.025406301021575928, -0.05812358856201172, 1.0852266185274742, 1759519692411447180, 
-0.35161077976226807, 0.41061288118362427, 1.0504174602224232, 1759519692443125644, 
0.021617472171783447, -0.00480043888092041, 1.2211410589041576, 1759519692471154233, 
0.24160796403884888, 0.7928295135498047, 1.1437971340448376, 1759519692501023847, 
0.3710806965827942, 0.20983511209487915, 1.1404506454797096, 1759519692530965211, 
-1.0571287870407104, 0.15407699346542358, 1.1042841239598529, 1759519692560966043, 
-0.2659502625465393, -0.07000106573104858, 1.0973113587523813, 1759519692590875160, 
-0.6032931804656982, 0.5967106223106384, 1.1145083210147482, 1759519692620882034, 
0.8761394619941711, 0.321505606174469, 1.0825461742118683, 1759519692651647748, 
-0.5590204000473022, 0.40456682443618774, 1.0361861374112407, 1759519692683122353, 
0.19129794836044312, 0.07268786430358887, 1.2209627052342102, 1759519692709755456, 
-0.6283130049705505, 0.1209491491317749, 1.0695575540623394, 1759519692740705115, 
-0.28411757946014404, 0.7548058032989502, 1.1332007235784918, 1759519692770619463, 
0.06653565168380737, 0.3524402379989624, 1.1584731166042155, 1759519692800564678, 
0.5586301684379578, -0.1490841507911682, 1.13509321009814, 1759519692830522394, 
-0.36005085706710815, 0.5084743499755859, 1.1290590762963248, 1759519692859437980, 
1.270018219947815, 0.23365360498428345, 0.984921674214703, 1759519692891171210, 
-0.49939173460006714, 0.010325789451599121, 0.9460377807675104, 1759519692923481733, 
0.03572815656661987, 0.9127657413482666, 1.1371988030590208, 1759519692950335899, 
0.2672976851463318, 0.04423046112060547, 1.079637304595861, 1759519692980283486, 
-0.4378848075866699, 0.04383748769760132, 1.0907387213510515, 1759519693010205754, 
-0.08169305324554443, 0.9046093225479126, 1.086313909069284, 1759519693040167181, 
-0.025848865509033203, -0.02551734447479248, 1.0835495069592445, 1759519693070105856, 
-0.17025232315063477, 0.393280565738678, 1.0620689141370057, 1759519693100168380, 
-0.4009937047958374, 0.1478232741355896, 1.0040463471921768, 1759519693131434812, 
-0.2277582287788391, 0.4704189896583557, 0.9951254228575106, 1759519693163581187, 
0.5437831282615662, 0.09146988391876221, 1.1999952973831267, 1759519693190042810, 
-0.025871336460113525, 0.042412519454956055, 1.0449284156343799, 1759519693219869825, 
0.5478541254997253, 0.7976144552230835, 1.0400040086275018, 1759519693249979006, 
0.28516560792922974, 0.07460874319076538, 1.0611361805503179, 1759519693279832421, 
-0.7037293910980225, 0.5336427688598633, 1.0854684213637347, 1759519693308726342, 
0.5611341595649719, 0.41508209705352783, 1.0620764861570304, 1759519693338749567, 
-0.36826080083847046, -0.07368779182434082, 0.949872190751007, 1759519693371723336, 
-0.3142852783203125, 0.21849817037582397, 1.0094835942661289, 1759519693402202817, 
0.5682620406150818, 0.595862627029419, 1.0964168802474055, 1759519693429681814, 
-0.8149508237838745, 0.4779825806617737, 1.0330768340776977, 1759519693458679349, 
-0.04216688871383667, -0.33431053161621094, 0.9926669147146543, 1759519693489406599, 
0.5349826812744141, 0.5734677314758301, 1.0749928460592144, 1759519693509407036, 
0.4953763484954834, 0.22415655851364136, 1.058896870020535, 1759519693549355874, 
-0.6150877475738525, 0.01662975549697876, 1.0414788160797737, 1759519693579279826, 
0.22414451837539673, 0.5777971148490906, 0.9542925330411871, 1759519693611581695, 
-0.763634204864502, -0.49723851680755615, 1.014106088156534, 1759519693641324657, 
-0.05541384220123291, 0.44706106185913086, 1.086647754548951, 1759519693669115932, 
0.2886677384376526, 0.6537852883338928, 1.0081714018238503, 1759519693699139067, 
0.4357101321220398, 0.07175564765930176, 1.0113233174628966, 1759519693729069471, 
0.06874257326126099, 0.6469334363937378, 1.0297613402655137, 1759519693759024999, 
0.22042012214660645, -0.25062739849090576, 0.9974664560384899, 1759519693789018120, 
-0.38538676500320435, 0.3369125723838806, 1.0272224441399, 1759519693818767750, 
1.0167441368103027, 0.7462584972381592, 0.9546024387045042, 1759519693851201168, 
0.06059318780899048, 0.31893491744995117, 1.0923243737550163, 1759519693878930982, 
-0.45289474725723267, 0.29651063680648804, 0.9936006707699722, 1759519693908822954, 
0.6802900433540344, -0.31080204248428345, 1.0130903743010753, 1759519693937761031, 
-0.3101010322570801, 0.7759730219841003, 0.9714449033602937, 1759519693968696346, 
-0.5217288732528687, 0.2353382110595703, 0.9860285060421866, 1759519693998655311, 
-0.19444656372070312, 0.008766412734985352, 0.9406346799573193, 1759519694028604814, 
-0.5413488149642944, 0.3417043089866638, 0.9098048849786643, 1759519694059821277, 
0.16062098741531372, 0.21561050415039062, 0.9414517940494889, 1759519694091506246, 
-0.5840502381324768, 0.4450046420097351, 1.119939230127783, 1759519694118450110, 
-0.8733862042427063, 0.39696645736694336, 0.9796874080553883, 1759519694148425032, 
1.3623006343841553, -0.11318790912628174, 0.9705239086590062, 1759519694178358574, 
-0.3725990056991577, 0.33467841148376465, 0.9673419493491352, 1759519694208326557, 
0.5366432070732117, -0.04817509651184082, 0.9594246591122385, 1759519694238280773, 
-0.4125153422355652, 0.9582635760307312, 0.9444932793302673, 1759519694268237915, 
-0.05597972869873047, 0.49848276376724243, 0.9136920619031375, 1759519694299252115, 
0.6077995896339417, 0.09683609008789062, 0.9323391645875775, 1759519694331364097, 
0.5553823113441467, 0.2445622682571411, 1.0788062531791895, 1759519694358190892, 
1.0018608570098877, -0.33873188495635986, 0.9424676558130732, 1759519694388091268, 
-0.18950027227401733, 0.7543239593505859, 0.9273026219409574, 1759519694418137200, 
-0.028548240661621094, 0.6292383074760437, 0.8989821120390835, 1759519694448115970, 
-0.14306998252868652, -0.4489727020263672, 0.8923135553161786, 1759519694478135536, 
-0.27785664796829224, 0.4809536933898926, 0.9226597591975368, 1759519694508166303, 
-0.4074505567550659, 0.7082419991493225, 0.9261010180891815, 1759519694539224500, 
-0.6022137999534607, -0.41133832931518555, 0.92360407526208, 1759519694570778100, 
-0.4081995487213135, 0.8939180374145508, 1.0728581135446495, 1759519694598171079, 
0.3234648108482361, 0.6744024753570557, 0.982154303160519, 1759519694628311339, 
-0.2667578458786011, 0.13822829723358154, 0.9694308317181233, 1759519694658136775, 
0.8545685410499573, 0.5607544183731079, 0.9267731490987581, 1759519694688158832, 
-0.7019792795181274, -0.3253406882286072, 0.9121662091089119, 1759519694717908274, 
0.01164919137954712, -0.43010175228118896, 0.8880390609376416, 1759519694747949531, 
-0.2783561944961548, 0.9639036655426025, 0.8753330901042531, 1759519694779376859, 
-1.150460124015808, 0.4666373133659363, 0.9278508781662521, 1759519694809608323, 
0.22834807634353638, -0.10856330394744873, 0.9948711618683543, 1759519694837891130, 
-0.645226240158081, 0.46498507261276245, 0.946682892820431, 1759519694867846112, 
-0.011972367763519287, 0.14790940284729004, 0.901088468807358, 1759519694897836972, 
-0.26104605197906494, 0.09761595726013184, 0.9041781603362584, 1759519694927905805, 
-0.3236392140388489, 0.7857004404067993, 0.9264256640635432, 1759519694957852262, 
0.3642684817314148, 0.058161377906799316, 0.9322627272611063, 1759519694987396150, 
0.390148401260376, 0.06001251935958862, 0.8430400731277358, 1759519695019674899, 
0.7767645120620728, 0.275895357131958, 0.9841647647045273, 1759519695047082107, 
0.49323731660842896, 0.12962567806243896, 0.9029913172951703, 1759519695077257756, 
0.07744848728179932, 0.5450965166091919, 0.9455451601856947, 1759519695106980404, 
0.40822720527648926, 0.44244110584259033, 0.9684694186580998, 1759519695136929845, 
-0.16255581378936768, -0.47186070680618286, 0.9107803887803059, 1759519695166859839, 
-0.14071881771087646, 0.714110791683197, 0.892453694254461, 1759519695197159460, 
-0.3368651270866394, 0.43647122383117676, 0.8804113790153376, 1759519695227627536, 
-1.3046821355819702, 0.11151033639907837, 0.8320090104228778, 1759519695259261537, 
-0.1808508038520813, 0.33683347702026367, 0.9749826082108249, 1759519695286641973, 
-0.539604663848877, -0.012755274772644043, 0.895543972458896, 1759519695316565667, 
0.19732171297073364, -0.09779715538024902, 0.8707684636418311, 1759519695346552987, 
-0.6943497657775879, 0.9428300857543945, 0.8832790080102112, 1759519695376429338, 
0.8574404120445251, 0.17634320259094238, 0.9024613000589518, 1759519695406427572, 
0.14646291732788086, -0.0769163966178894, 0.9211028742892625, 1759519695436379037, 
0.3086205720901489, 0.7135055065155029, 0.9193751186486254, 1759519695466739992, 
0.9920037388801575, 0.41199570894241333, 0.8286987971303262, 1759519695499580065, 
-0.43234115839004517, 0.09031891822814941, 0.9640565541966479, 1759519695526286142, 
-0.4628710150718689, 0.5361359715461731, 0.8668322062131284, 1759519695556169714, 
0.2434256672859192, 0.01990652084350586, 0.8924052211408842, 1759519695586121357, 
-0.4999542236328125, -0.1810207962989807, 0.8921403695902999, 1759519695616094185, 
0.5402529239654541, 1.1318347454071045, 0.8843085311584696, 1759519695646001153, 
-0.38160473108291626, 0.0830223560333252, 0.925130454360166, 1759519695676017975, 
-0.7406224012374878, -0.24071168899536133, 0.8836323216082195, 1759519695707402520, 
1.59109365940094, 0.5206871032714844, 0.8494653267255651, 1759519695739166887, 
0.328704297542572, 0.12289828062057495, 0.9641140871955098, 1759519695765882655, 
-0.17909634113311768, 0.42535001039505005, 0.8622228381425032, 1759519695795804600, 
-0.6730843782424927, 0.8092125058174133, 0.8654358670915233, 1759519695825710270, 
0.03942936658859253, -0.18327248096466064, 0.8924259477872868, 1759519695854778626, 
0.9805534482002258, 0.15404564142227173, 0.8596075938156158, 1759519695884606215, 
-0.40699005126953125, 0.3332676887512207, 0.8271380977374054, 1759519695915795304, 
0.4135596752166748, 0.11953753232955933, 0.830303309840674, 1759519695947662247, 
-1.159203290939331, 0.2534177899360657, 0.892475015378116, 1759519695976749650, 
-0.1418740153312683, 0.2852323055267334, 0.8958700386938728, 1759519696005427999, 
0.1780945062637329, 0.393279492855072, 0.8803257414402755, 1759519696035500227, 
-0.7108898758888245, 0.37048572301864624, 0.7720423230331035, 1759519696057647748, 
0.07001203298568726, 0.03976839780807495, 0.8925445667461872, 1759519696095590237, 
-0.5737893581390381, 0.7950424551963806, 0.8491581023797833, 1759519696125557741, 
1.1259325742721558, -0.039130210876464844, 0.8417962158100056, 1759519696155417128, 
-0.7203323841094971, 0.06973069906234741, 0.7943938512324359, 1759519696187403429, 
-0.13055330514907837, 0.7981132864952087, 0.9058462825323023, 1759519696215149183, 
-0.3697770833969116, 0.2208395004272461, 0.8527132534401688, 1759519696245104927, 
-0.10595494508743286, -0.658116340637207, 0.8534488808019159, 1759519696275016520, 
0.6623041033744812, 0.6832630038261414, 0.8680704446775597, 1759519696304940357, 
0.49894845485687256, 1.0889768600463867, 0.8492812161294714, 1759519696334969280, 
0.5533373355865479, -0.49353522062301636, 0.8282131034176574, 1759519696364875781, 
0.7411048412322998, 0.17025506496429443, 0.7878847548983439, 1759519696396305818, 
-0.22928005456924438, 0.8625845313072205, 0.7698679006893552, 1759519696428529200, 
-0.1973271369934082, -0.16344600915908813, 0.9761492180183287, 1759519696454776201, 
-0.2773147225379944, 0.2850738763809204, 0.9000855572605317, 1759519696483656159, 
-0.19907504320144653, 0.297981858253479, 0.707906956223961, 1759519696507720990, 
-0.061273276805877686, -0.10916924476623535, 0.9463497694870487, 1759519696544614446, 
-0.628068208694458, -0.12383580207824707, 0.8633724704044721, 1759519696574590350, 
0.7590599656105042, 0.7033748626708984, 0.8827480581583602, 1759519696603859766, 
-0.2595720887184143, -0.03712671995162964, 0.7817499126647822, 1759519696635663539, 
-0.06587117910385132, -0.12409102916717529, 0.7592552631620045, 1759519696667368383, 
-0.13764363527297974, 0.41517174243927, 0.888989210028962, 1759519696704307909, 
-0.7840626239776611, -0.14607542753219604, 0.8429311125407256, 1759519696764509068, 
0.13855117559432983, 0.07260048389434814, 0.8058732734958708, 1759519696795626076, 
-0.19293123483657837, 0.44835132360458374, 0.8885343066489385, 1759519696864212174, 
0.439805805683136, 0.2096073031425476, 0.8010445722705362, 1759519696894014503, 
-0.5666601061820984, 0.09994131326675415, 0.8051376898198318, 1759519696924529289, 
0.12449795007705688, 0.4622945785522461, 0.7716054587106513, 1759519696956126803, 
-0.503474235534668, 0.1950169801712036, 0.7785782650275667, 1759519696986960204, 
-0.18329638242721558, 0.1342211365699768, 0.8956746835825162, 1759519697014051381, 
1.4863640069961548, 0.15676945447921753, 0.8433574787372623, 1759519697044313768, 
-0.4101508855819702, 0.6062448024749756, 0.8480352419883401, 1759519697073966993, 
0.4008307456970215, 0.48963630199432373, 0.8494590936198085, 1759519697102716811, 
-0.5560555458068848, -0.5758960247039795, 0.7882691768796248, 1759519697133622679, 
0.24914127588272095, 0.21051883697509766, 0.8219307274865455, 1759519697163633525, 
0.07549256086349487, 1.0811221599578857, 0.7559589945037697, 1759519697195993201, 
-1.3990312814712524, 0.14187681674957275, 0.7889734926285646, 1759519697225895319, 
0.8446623682975769, -0.06568747758865356, 0.8575166497365283, 1759519697263460556, 
0.0016425251960754395, 0.2538264989852905, 0.79776271963898, 1759519697293392066, 
0.28772270679473877, 0.5056655406951904, 0.8109616929090029, 1759519697322764485, 
-0.980545163154602, 0.30833321809768677, 0.7335047787831085, 1759519697355498682, 
-0.055711328983306885, -0.43596595525741577, 0.8358807618204237, 1759519697383295908, 
-0.3277352452278137, 0.21638774871826172, 0.8124217229991635, 1759519697413177637, 
-0.811974823474884, 0.8978430032730103, 0.8292665908062302, 1759519697443125335, 
0.9458998441696167, -0.09192681312561035, 0.7822309711594402, 1759519697473128279, 
-0.4258391261100769, 0.05402654409408569, 0.7718309768760192, 1759519697503068140, 
0.3547549247741699, 0.4760358929634094, 0.7799721251649699, 1759519697533252335, 
-0.6085958480834961, 0.4037039279937744, 0.798605137133554, 1759519697563349217, 
0.15355074405670166, 0.8597556948661804, 0.7345311207989711, 1759519697595627079, 
-0.34069377183914185, -0.11858904361724854, 0.8699559610895103, 1759519697623006833, 
-0.9600723385810852, -0.03114980459213257, 0.7983795811697716, 1759519697652829991, 
1.0109604597091675, 0.6794654130935669, 0.8127022876028039, 1759519697681733072, 
-0.2749990224838257, 0.23043370246887207, 0.8007176979715032, 1759519697710731734, 
0.48634791374206543, -0.5638607144355774, 0.7265603377319946, 1759519697742655241, 
-0.5992211103439331, 0.47643089294433594, 0.7706060388623766, 1759519697772620901, 
-0.1976833939552307, 0.896268904209137, 0.7469537034501283, 1759519697803401394, 
0.08514577150344849, 0.28692102432250977, 0.7321741508730445, 1759519697836054182, 
-1.0395219326019287, -0.31334322690963745, 0.910362887177232, 1759519697862444596, 
0.16218137741088867, 0.22922152280807495, 0.8042892247232692, 1759519697892463147, 
-1.0518406629562378, 0.7888351082801819, 0.800561861395737, 1759519697922363353, 
-0.5885805487632751, 0.06969434022903442, 0.7750759884600393, 1759519697952307235, 
0.6863692402839661, -0.3638579845428467, 0.7775955697702567, 1759519697982367167, 
-0.22942817211151123, 0.3248446583747864, 0.7782984600757731, 1759519698012278086, 
0.5661984086036682, 0.7427389025688171, 0.7311316129399543, 1759519698043587336, 
-0.589440107345581, 0.5930732488632202, 0.7620013095549798, 1759519698073745714, 
0.17596220970153809, -0.47045522928237915, 0.8200688702547806, 1759519698102098825, 
-1.2615809440612793, -0.08965098857879639, 0.7777714837809626, 1759519698132079866, 
-0.00521695613861084, 0.522655725479126, 0.7608257781309227, 1759519698162015310, 
0.23665398359298706, 0.5392439961433411, 0.7408734595560101, 1759519698192096543, 
-0.17382419109344482, -0.11838352680206299, 0.7459225542477491, 1759519698221883109, 
-0.26783812046051025, 0.4818519949913025, 0.7609604588133466, 1759519698252096465, 
0.338789165019989, 0.2988772392272949, 0.74389446291071, 1759519698283897265, 
0.6789313554763794, -0.08107012510299683, 0.8229254731868343, 1759519698312688721, 
0.7641353607177734, 0.4265853762626648, 0.847794656156733, 1759519698340727804, 
0.03287994861602783, 0.21265363693237305, 0.768211472467939, 1759519698370726403, 
-0.28539836406707764, 0.17419832944869995, 0.7525189577534197, 1759519698401571589, 
0.22115051746368408, 0.6165257096290588, 0.7642479017655684, 1759519698431724364, 
-0.24306994676589966, -0.11882472038269043, 0.7314354241972695, 1759519698461532078, 
0.05176377296447754, 0.1306268572807312, 0.7618659158369663, 1759519698491522872, 
0.7913531064987183, 0.5400169491767883, 0.7000200436515946, 1759519698523812181, 
0.4958844780921936, -0.26926231384277344, 0.7845767639260223, 1759519698551439621, 
-0.7390285730361938, 0.13980025053024292, 0.7012739888172402, 1759519698581336814, 
0.24701035022735596, 0.778145968914032, 0.7220886431067913, 1759519698611298429, 
-0.7188291549682617, 0.09488356113433838, 0.7854357514835698, 1759519698641321446, 
-0.7829772233963013, 0.6623668074607849, 0.7655976563373862, 1759519698671197682, 
0.901167631149292, -0.09506088495254517, 0.7326193636210191, 1759519698701159673, 
0.16725021600723267, 0.18403637409210205, 0.6925858853847517, 1759519698731899073, 
0.7809666395187378, 0.49729597568511963, 0.6779039702175276, 1759519698763486385, 
0.12542760372161865, 0.493896484375, 0.8427091042852335, 1759519698791109943, 
-0.5099873542785645, -0.049038827419281006, 0.7643937024935793, 1759519698820965028, 
0.42605477571487427, -0.39830493927001953, 0.7239760916173851, 1759519698850895436, 
-0.5428847670555115, 0.8162418603897095, 0.7188469722010717, 1759519698880859541, 
-0.12448561191558838, 0.5837141871452332, 0.7587848567651552, 1759519698909844530, 
0.0015943646430969238, -0.3496459126472473, 0.7653585718476734, 1759519698939747580, 
0.28595900535583496, 0.1062612533569336, 0.7275716657024802, 1759519698970735988, 
-0.0385664701461792, 0.38656944036483765, 0.6534315178537998, 1759519699003510941, 
-0.25609177350997925, 0.512802243232727, 0.8398961595953929, 1759519699029748874, 
0.31377893686294556, 0.6840384006500244, 0.7026023677188331, 1759519699060842963, 
-0.2868925929069519, -0.06039386987686157, 0.7372593359625865, 1759519699090602729, 
-0.43405187129974365, -0.11752718687057495, 0.7540843768150172, 1759519699120452457, 
0.045203328132629395, 0.7140987515449524, 0.7706256660496993, 1759519699150414973, 
0.6196580529212952, 0.24962949752807617, 0.8128231785894217, 1759519699180408782, 
-0.2819698452949524, -0.296596884727478, 0.7950749329362672, 1759519699210743389, 
0.5138537883758545, 0.25029444694519043, 0.6985994773468368, 1759519699244003244, 
-0.07598316669464111, 0.6081401109695435, 0.847135686798939, 1759519699270291296, 
-0.33513975143432617, 0.4371297359466553, 0.7283842630863469, 1759519699300166527, 
-0.054752469062805176, -0.284466028213501, 0.7053251240672243, 1759519699330165940, 
-0.8378968834877014, 0.3197678327560425, 0.6989036194045847, 1759519699360134466, 
0.5789421200752258, -0.07025092840194702, 0.7200395740163587, 1759519699390044223, 
-0.07163983583450317, 0.527895987033844, 0.7570027993051514, 1759519699420282669, 
-0.13884001970291138, 0.2997027635574341, 0.7513312118480546, 1759519699450758522, 
-0.10669118165969849, -0.013891279697418213, 0.7220099234098674, 1759519699482718909, 
-0.2298433780670166, 0.27872151136398315, 0.8385823042484489, 1759519699509864292, 
0.0237157940864563, 1.0849297046661377, 0.7606634588236023, 1759519699540012423, 
0.5857294201850891, -0.25054240226745605, 0.6734449966652605, 1759519699562644742, 
0.2742076516151428, -0.10069394111633301, 0.8001571981463381, 1759519699600029115, 
-0.3690890669822693, 0.35010671615600586, 0.7385139893419479, 1759519699629673773, 
0.4660925269126892, 0.3455509543418884, 0.74791198147188, 1759519699660053604, 
-0.16088515520095825, 0.5679665207862854, 0.7496957719046352, 1759519699692004489, 
-0.6270351409912109, 0.16815578937530518, 0.7901846636815373, 1759519699721618194, 
0.5078418850898743, -0.42117446660995483, 0.7985762266242036, 1759519699749550698, 
-1.2269256114959717, 0.320687472820282, 0.7306487875473284, 1759519699779493126, 
-0.6558155417442322, 0.7215127944946289, 0.7369849778832274, 1759519699809364917, 
-0.46878474950790405, -0.08161860704421997, 0.7355917745791091, 1759519699839294594, 
-0.6021241545677185, 0.010213792324066162, 0.7367710718943271, 1759519699869276999, 
0.25643837451934814, 0.6285758018493652, 0.6940839389790119, 1759519699900772049, 
0.11935281753540039, 0.15938597917556763, 0.6799773041123051, 1759519699932181102, 
-0.00787442922592163, 0.2575697898864746, 0.8109116231972401, 1759519699959571569, 
0.015716731548309326, 0.005491375923156738, 0.795910289512591, 1759519699989106727, 
-0.6592088937759399, 0.20462262630462646, 0.7774288069678864, 1759519700019288132, 
-0.564175546169281, 0.7119719386100769, 0.7722241851510869, 1759519700049239857, 
0.7270848155021667, 0.06573599576950073, 0.7511882318506354, 1759519700078955414, 
-0.47782570123672485, -0.4278183579444885, 0.762933321767665, 1759519700107917053, 
-0.03169804811477661, 0.7830005288124084, 0.6736746594512963, 1759519700139878730, 
0.30745911598205566, 0.2193312644958496, 0.6509851199897798, 1759519700171557463, 
0.2788217067718506, -0.27446991205215454, 0.7808296858393416, 1759519700198980862, 
0.4963715672492981, 0.44547826051712036, 0.7319548303115394, 1759519700228692766, 
0.22925257682800293, 0.6182230114936829, 0.7364137567965164, 1759519700258675734, 
-0.216586172580719, 0.7175419330596924, 0.7130655480780466, 1759519700288579665, 
0.6804691553115845, -0.30355405807495117, 0.7279655356275162, 1759519700318570035, 
0.3138505816459656, -0.06236523389816284, 0.756780903146428, 1759519700348475176, 
-0.5877876281738281, 0.3232152462005615, 0.7145070597941294, 1759519700379553957, 
-0.10719692707061768, 0.5689903497695923, 0.6729208097339788, 1759519700411550432, 
-0.1647322177886963, 0.4705033302307129, 0.7919751841300007, 1759519700448716760, 
0.6003564596176147, 0.1151610016822815, 0.7994757430349121, 1759519700478529942, 
0.01231694221496582, 0.25076383352279663, 0.7828616060348764, 1759519700508536193, 
-0.22560179233551025, 0.29456496238708496, 0.7128080078181656, 1759519700540133269, 
-0.113170325756073, 0.13407236337661743, 0.71439619678027, 1759519700571209038, 
-0.3251523971557617, 0.21904003620147705, 0.8121239813852514, 1759519700598527247, 
-0.46371692419052124, 0.13005226850509644, 0.7123589462296088, 1759519700628605350, 
0.3599708080291748, 0.028273344039916992, 0.7013728461994534, 1759519700658440230, 
-0.6652160882949829, 0.2958921194076538, 0.7185467457611578, 1759519700688254298, 
0.0010046958923339844, 0.701200008392334, 0.7053484458469338, 1759519700718306857, 
0.09390783309936523, 0.3581739068031311, 0.733907380321051, 1759519700748285866, 
-0.12909120321273804, -0.13575243949890137, 0.6907099712514155, 1759519700780145772, 
0.8906434178352356, -0.17801439762115479, 0.7257473872585692, 1759519700810059776, 
0.2238330841064453, 0.6697936654090881, 0.8329162982341657, 1759519700838205218, 
-0.17163866758346558, 0.566417396068573, 0.78237411797686, 1759519700868181998, 
0.7654373049736023, -0.28536224365234375, 0.7204477023182174, 1759519700898190751, 
-0.4531095027923584, 0.44209784269332886, 0.6892423011832504, 1759519700928192369, 
0.47447651624679565, 0.4096817374229431, 0.6940053264950505, 1759519700958396077, 
0.5660989284515381, 0.24433696269989014, 0.7382754215030222, 1759519700988210205, 
0.37316805124282837, 0.35834354162216187, 0.7048936756523669, 1759519701019621919, 
0.5101036429405212, -0.28902125358581543, 0.8170765597060756, 1759519701047453319, 
0.13869398832321167, 0.508635938167572, 0.7516672343184926, 1759519701077398304, 
0.7403439283370972, 0.4924021363258362, 0.7214860656966782, 1759519701107335852, 
0.6305188536643982, 0.11749392747879028, 0.7068851410747043, 1759519701137337575, 
-0.18848282098770142, -0.024188697338104248, 0.712886997175093, 1759519701167295875, 
-0.4495636820793152, 0.5601635575294495, 0.7295096909612697, 1759519701197182762, 
-0.07357078790664673, 0.24677401781082153, 0.69069392673712, 1759519701228342042, 
-0.41377878189086914, -0.020887434482574463, 0.7451247753596276, 1759519701258757171, 
0.23738503456115723, 0.6198539733886719, 0.7989403965892774, 1759519701287109300, 
0.20113146305084229, 0.01653379201889038, 0.748025657699834, 1759519701317048598, 
-1.0282381772994995, 0.04722857475280762, 0.7447445175466165, 1759519701346970480, 
0.8554303050041199, 0.6374121308326721, 0.7607911829705275, 1759519701376948899, 
-0.17932367324829102, 0.0536959171295166, 0.7587817654175231, 1759519701406935143, 
-0.44159191846847534, 0.46088099479675293, 0.7552104309502833, 1759519701435832534, 
-0.44226109981536865, 0.20185762643814087, 0.6613510582271479, 1759519701467682980, 
-1.2467652559280396, -0.15000063180923462, 0.670167937925452, 1759519701499615829, 
0.8591725826263428, 0.08771622180938721, 0.831407063358996, 1759519701526858844, 
-0.7415688633918762, 0.6310033202171326, 0.7378829446237478, 1759519701556630627, 
0.0192679762840271, 0.2203679084777832, 0.7173963952976186, 1759519701586548753, 
-0.5329206585884094, 0.22155869007110596, 0.746226102368927, 1759519701616435142, 
0.6137272119522095, 0.15019679069519043, 0.7611623190088143, 1759519701646481979, 
0.15449559688568115, -0.14456385374069214, 0.7689325680948124, 1759519701676356052, 
-0.42825329303741455, 0.935867965221405, 0.723219210469285, 1759519701706731459, 
-0.14174550771713257, 0.18851375579833984, 0.6461928804731388, 1759519701740021895, 
-1.1322447061538696, 0.006356656551361084, 0.8262651414059865, 1759519701766331780, 
0.4118463397026062, -0.1250530481338501, 0.7416498951643042, 1759519701796222403, 
-0.2661537528038025, 0.6241616010665894, 0.7493110679504965, 1759519701826177165, 
-0.04027515649795532, 0.5003672242164612, 0.7257689564772376, 1759519701856116160, 
0.6186314225196838, -0.1448189616203308, 0.7256205231650407, 1759519701886039437, 
0.027398288249969482, -0.060777485370635986, 0.7643474873220938, 1759519701916029609, 
0.6020584106445312, 0.9011486768722534, 0.7235037496688964, 1759519701946990761, 
-0.4048897624015808, 0.39102476835250854, 0.7052110096047848, 1759519701978404996, 
-0.4863978624343872, 0.11106300354003906, 0.8089932666275172, 1759519702005007101, 
-0.2388966679573059, -0.005689859390258789, 0.7035640819847316, 1759519702036064003, 
-0.1397538185119629, 0.1667000651359558, 0.7492407507330998, 1759519702065790061, 
0.9090638160705566, 0.7723708748817444, 0.7951336695238174, 1759519702094796079, 
-0.5846700668334961, 0.44009822607040405, 0.7404721556470174, 1759519702125680649, 
0.19387847185134888, -0.46187645196914673, 0.7639153729785746, 1759519702155947631, 
-1.0477043390274048, 0.28072571754455566, 0.7244799432257671, 1759519702188152310, 
-0.030285954475402832, 0.7978318333625793, 0.8171330844454243, 1759519702215589282, 
-0.32427626848220825, 0.24352425336837769, 0.7212098931441472, 1759519702245438665, 
0.5163737535476685, -0.24631541967391968, 0.7188010825721538, 1759519702275452809, 
0.5661323070526123, 0.10660511255264282, 0.7329126460748965, 1759519702305383554, 
0.04844874143600464, 0.23301690816879272, 0.7342788479832532, 1759519702335365694, 
0.7883868217468262, 0.9235479831695557, 0.7289511148454312, 1759519702365316742, 
0.05462181568145752, 0.12399488687515259, 0.7206041586284099, 1759519702395941543, 
0.31803762912750244, -0.08244335651397705, 0.7015868872744596, 1759519702428024554, 
-0.35912513732910156, 0.13839983940124512, 0.8044532153094527, 1759519702455157523, 
-0.5664724707603455, 1.065793514251709, 0.7125138815770589, 1759519702485078890, 
-0.3055102825164795, 0.3222258687019348, 0.5986993572080526, 1759519702508193694, 
0.35881829261779785, -0.40387099981307983, 0.8235376762522515, 1759519702543969510, 
0.37303876876831055, -0.13431811332702637, 0.7172246467970553, 1759519702574982704, 
1.1171081066131592, 0.6801362037658691, 0.7627323455816861, 1759519702604874798, 
0.4246610403060913, 0.7563531994819641, 0.7287963333880391, 1759519702636269270, 
-0.09906011819839478, -0.13017427921295166, 0.7149286845316447, 1759519702668050414, 
0.12576788663864136, -0.39834874868392944, 0.8787869864919998, 1759519702693751722, 
-0.7799677848815918, 0.5215201377868652, 0.7368275594537979, 1759519702723758311, 
-0.009068548679351807, 0.9561892151832581, 0.712647845414481, 1759519702754685039, 
-0.2244793176651001, -0.339813768863678, 0.7292037057603833, 1759519702784583762, 
0.7002050876617432, -0.16274923086166382, 0.7802503512289571, 1759519702813751108, 
-0.3486419916152954, 0.7810038924217224, 0.7141222673327984, 1759519702844549962, 
0.8869011402130127, 0.27109360694885254, 0.6947546981714873, 1759519702875800467, 
-0.5145898461341858, 0.297176718711853, 0.6987086595075891, 1759519702907932665, 
0.5719805955886841, -0.07121294736862183, 0.8275516912926191, 1759519702944336989, 
0.2308383584022522, 0.07088017463684082, 0.7711947841565766, 1759519702974522435, 
0.5887917876243591, 1.01880943775177, 0.739837901719666, 1759519703004291171, 
0.6478256583213806, 0.424640953540802, 0.6571000954359363, 1759519703035847088, 
-0.6988410353660583, -0.5019990801811218, 0.6916618827118935, 1759519703066982768, 
0.9036436676979065, 0.1647743582725525, 0.8092692511174228, 1759519703094161897, 
-0.10695654153823853, 0.7736417651176453, 0.7289506412155846, 1759519703124058801, 
0.28803008794784546, -0.32174479961395264, 0.6862276529256998, 1759519703145549091, 
0.9713573455810547, 0.0827755331993103, 0.825625267135586, 1759519703173092878, 
-0.4523332715034485, 0.7501527070999146, 0.732257522738357, 1759519703203949531, 
0.6837290525436401, -0.0636899471282959, 0.6753107671720615, 1759519703226329479, 
-0.8366425633430481, -0.13397812843322754, 0.7820014512576613, 1759519703264133943, 
0.0543590784072876, -0.035178959369659424, 0.7105798582477842, 1759519703294091345, 
-0.5333793759346008, -0.0009133815765380859, 0.7303963830320249, 1759519703323994027, 
0.2859014868736267, 0.4995006322860718, 0.6958224765329418, 1759519703355816270, 
0.44763875007629395, 0.29018735885620117, 0.8005155511132637, 1759519703383721703, 
0.6042136549949646, 0.21609044075012207, 0.7435748979414621, 1759519703413602155, 
-0.1866915225982666, 0.06367015838623047, 0.7633216793542765, 1759519703443586879, 
-0.8136888742446899, 0.6734030842781067, 0.78654675456989, 1759519703473588522, 
0.27573662996292114, 0.4238318204879761, 0.7693409913688033, 1759519703503534982, 
0.2786768078804016, 0.22840368747711182, 0.7387824162298847, 1759519703533605885, 
-0.24386173486709595, 0.2611171007156372, 0.7007644543843597, 1759519703564037894, 
0.1744476556777954, 0.19490951299667358, 0.6589884679496659, 1759519703596385868, 
-1.1662771701812744, 0.11462020874023438, 0.8164908451959049, 1759519703623651708, 
-0.3173562288284302, 0.5249615907669067, 0.7486526538905446, 1759519703653255823, 
-0.6673669815063477, 0.1652882695198059, 0.7601170154912855, 1759519703683154637, 
0.025959551334381104, -0.13859641551971436, 0.7567448618821491, 1759519703713176516, 
-0.2309170961380005, 0.8653863668441772, 0.7654023941726292, 1759519703743076002, 
0.11992871761322021, 0.08562332391738892, 0.7450557374747422, 1759519703773234871, 
0.2863055467605591, -0.029459595680236816, 0.7697764841675034, 1759519703802770439, 
0.23290956020355225, 0.7823548316955566, 0.6808543798948904, 1759519703835837377, 
0.25303715467453003, 0.22488832473754883, 0.8246703167835758, 1759519703862994343, 
-0.47639626264572144, 0.31452327966690063, 0.7584072193257536, 1759519703892862308, 
-0.18883126974105835, -0.21590471267700195, 0.7381912388679372, 1759519703922780148, 
-0.21758300065994263, 0.05142253637313843, 0.8020435155509701, 1759519703951748698, 
0.1523532271385193, 0.9648065567016602, 0.7817873597814989, 1759519703981745301, 
0.4325135350227356, 0.32811373472213745, 0.736090510849521, 1759519704012641924, 
0.2735636234283447, -0.3198162913322449, 0.7170356609536609, 1759519704044325119, 
0.6136143803596497, -0.013004183769226074, 0.6972605369484132, 1759519704075909050, 
0.1177217960357666, 0.6008018255233765, 0.8048332977504276, 1759519704102530420, 
-0.23073476552963257, 0.9493492245674133, 0.7262170523738023, 1759519704132494883, 
1.186984896659851, 0.26082175970077515, 0.6289946986214605, 1759519704155856288, 
-0.3314371705055237, -0.44691503047943115, 0.7926066728460062, 1759519704192366655, 
-0.0806117057800293, 0.8265018463134766, 0.7276301329442899, 1759519704222325250, 
-0.33878183364868164, 0.1790907382965088, 0.7729000725535451, 1759519704252438539, 
-0.3151349425315857, 0.34523218870162964, 0.7817828890636696, 1759519704282732426, 
1.7795637845993042, 0.29025208950042725, 0.7433108275133169, 1759519704315040281, 
0.06832379102706909, 0.4477245807647705, 0.8450107553642402, 1759519704342141952, 
0.8335320353507996, 0.3004963994026184, 0.7796181603318108, 1759519704371060641, 
0.05422866344451904, 0.08492797613143921, 0.7401849782802387, 1759519704402075286, 
-0.2958769202232361, -0.06308358907699585, 0.7367183143816982, 1759519704432014938, 
-0.6247907876968384, 0.7593608498573303, 0.7087372151428544, 1759519704461974786, 
-0.8648360967636108, 0.2372218370437622, 0.7362329625230174, 1759519704492161589, 
1.3615411520004272, -0.06638509035110474, 0.7249332224391417, 1759519704523807117, 
-0.05882835388183594, 0.7567805647850037, 0.789577178259855, 1759519704551844155, 
0.8851193189620972, 0.10886192321777344, 0.739601760334866, 1759519704580727021, 
-0.9376266002655029, -0.2611761689186096, 0.6925513348847728, 1759519704611714650, 
-0.39891380071640015, 0.5159400105476379, 0.721206203096899, 1759519704641707478, 
-0.06185823678970337, 0.45185786485671997, 0.7631794068715371, 1759519704671639646, 
-1.1604775190353394, -0.04958850145339966, 0.7683309287742341, 1759519704701599629, 
0.23597699403762817, 0.5721056461334229, 0.7663562491792633, 1759519704730752696, 
-0.590947687625885, 0.22059690952301025, 0.7300758896792996, 1759519704762765735, 
-0.5950725674629211, -0.2873935103416443, 0.8072788459891523, 1759519704791564721, 
0.4573577046394348, 0.30543041229248047, 0.7505935680599325, 1759519704821382275, 
-0.2526472210884094, 0.6819573044776917, 0.7425409657668655, 1759519704851316981, 
0.4339306354522705, 0.21166372299194336, 0.7222026479436529, 1759519704881291817, 
-0.685826301574707, -0.08155852556228638, 0.7263583543127212, 1759519704911283008, 
-0.5511382222175598, 0.2677363157272339, 0.743380392618168, 1759519704941337500, 
-0.9789931774139404, 0.4570378065109253, 0.7337398403853762, 1759519704970725383, 
0.06047719717025757, 0.18779796361923218, 0.6521807741891982, 1759519705004212486, 
-0.4749677777290344, 0.964660108089447, 0.896246599630988, 1759519705030104127, 
1.1485792398452759, 0.29459917545318604, 0.7654574987515302, 1759519705061029233, 
-0.6249356865882874, -0.41462254524230957, 0.7891633046826765, 1759519705090952232, 
-0.9960924983024597, 0.6170090436935425, 0.7857196152909826, 1759519705120899919, 
0.2992516756057739, 0.15165936946868896, 0.7400165771655492, 1759519705150933629, 
-1.2483962774276733, 0.00958174467086792, 0.7245507381064074, 1759519705180814432, 
0.4386240839958191, 0.38328468799591064, 0.6965426863666901, 1759519705211814767, 
-0.2632816433906555, 0.37105119228363037, 0.6783454385310799, 1759519705244066316, 
0.10912984609603882, 0.2046552300453186, 0.8236808624833153, 1759519705270672872, 
1.172684669494629, 0.3868093490600586, 0.7851963753319207, 1759519705300608135, 
-0.9564616680145264, 0.17676931619644165, 0.7728414100872544, 1759519705330565538, 
-0.03363800048828125, 0.1995493769645691, 0.7738739351177164, 1759519705359743248, 
-1.2460927963256836, 0.10899066925048828, 0.726795633363205, 1759519705390480704, 
-0.36885499954223633, 0.17524802684783936, 0.7406070269929409, 1759519705420443167, 
0.216222882270813, 0.3446226716041565, 0.684817533741028, 1759519705452350476, 
-0.3078705668449402, 0.24156814813613892, 0.6960542842612971, 1759519705483293645, 
0.49180173873901367, 0.24441754817962646, 0.8036426625400956, 1759519705510395508, 
0.13168907165527344, 0.15818017721176147, 0.7698086874183998, 1759519705540222150, 
1.1637061834335327, -0.045410990715026855, 0.7815900794653069, 1759519705570176631, 
-0.5959285497665405, 0.7245895266532898, 0.7472061944723298, 1759519705600307795, 
-0.07615518569946289, 0.6806802749633789, 0.7170042170166795, 1759519705630268996, 
-0.19070637226104736, -0.517159640789032, 0.7038047372263299, 1759519705660676963, 
0.05535811185836792, 0.5601550936698914, 0.6808562518999686, 1759519705692515113, 
0.0941920280456543, -0.1735439896583557, 0.7339126269645673, 1759519705723459893, 
