acc_x, acc_y, angular_z, stamp, 
-0.005756258964538574, -0.018925070762634277, -3.9327525350096615e-10, 1759519743440436227, 
-0.03244006633758545, 0.026063919067382812, -4.4333097986211895e-10, 1759519743470406826, 
-0.01749366521835327, -0.008009850978851318, -4.949371961114637e-10, 1759519743501867771, 
0.018832743167877197, 0.020655453205108643, 2.145752657752538e-06, 1759519743529638924, 
-0.011514127254486084, -0.006489992141723633, -3.961529259943251e-10, 1759519743619470988, 
0.014023125171661377, 0.020428955554962158, -5.107383249378906e-10, 1759519743649417106, 
0.032118260860443115, 0.00415492057800293, -3.280858120906411e-10, 1759519743679412380, 
0.00679248571395874, -0.019206345081329346, -2.3572276320945e-10, 1759519743710248960, 
-0.04343819618225098, -0.0065097808837890625, 1.8813012650951893e-06, 1759519743741927765, 
0.026928186416625977, 0.006103098392486572, -4.015185546316496e-10, 1759519743769233414, 
0.028727412223815918, 0.0007067322731018066, -4.395654480415539e-10, 1759519743798191808, 
-0.009223461151123047, -0.015391290187835693, -2.9207317790700517e-10, 1759519743829102148, 
-0.03820157051086426, -0.00438237190246582, -3.5130086373701974e-10, 1759519743859173308, 
-0.04513406753540039, 0.01016700267791748, -4.983412994693914e-10, 1759519743889004793, 
0.014262259006500244, 0.011935710906982422, -5.071418709748051e-10, 1759519743918999479, 
0.04277604818344116, -0.011537373065948486, -4.092684746715369e-10, 1759519743949998722, 
0.0028003454208374023, -0.006128072738647461, 1.8409701527065292e-06, 1759519743982370856, 
-0.03484469652175903, -0.009814858436584473, -2.422235711202118e-10, 1759519744008979784, 
0.0049953460693359375, 0.009932875633239746, -2.460985711851797e-10, 1759519744037768304, 
0.012278556823730469, -0.013554394245147705, -1.6147469544657317e-10, 1759519744067756691, 
-0.003952622413635254, -0.004654347896575928, -3.793866085650144e-11, 1759519744098708292, 
0.015790343284606934, 0.0010641217231750488, -1.6754301345963772e-10, 1759519744221858900, 
-0.02413201332092285, -0.0003892183303833008, -1.7193980959954107e-10, 1759519744278434879, 
0.020748436450958252, 0.022995591163635254, -1.667831063064153e-10, 1759519744308377359, 
0.01680225133895874, 0.008590340614318848, -1.1212121336328465e-10, 1759519744338537282, 
-0.0018320679664611816, -0.0038315653800964355, 7.109957602426863e-11, 1759519744398448291, 
0.008715987205505371, -0.00461810827255249, 0.00039539919966130973, 1759519744430557588, 
1.900356411933899, -0.1168442964553833, 0.027355557651559455, 1759519744488082829, 
1.3865684270858765, 0.12578541040420532, -0.01824664281570704, 1759519744518062406, 
0.7866250276565552, -0.298223078250885, -0.014204190733059804, 1759519744548014976, 
1.2199389934539795, 0.21812069416046143, -0.006736965553190752, 1759519744578258378, 
0.984912097454071, 0.030761539936065674, -0.011541798296045385, 1759519744607984741, 
0.0720977783203125, -0.13441085815429688, -0.015255964429079364, 1759519744638078851, 
0.5263614654541016, -0.20934677124023438, -0.003963516053032449, 1759519744670308013, 
1.1745357513427734, 0.21561133861541748, 0.014473460547353765, 1759519744697794746, 
0.9449613690376282, 0.6230607032775879, 0.003681989770269769, 1759519744727677017, 
0.9634327292442322, -0.43031245470046997, -0.013157887005122958, 1759519744757641163, 
1.1245408058166504, -0.6244440674781799, -0.008255093813936454, 1759519744787607533, 
1.066494107246399, 0.1787150502204895, -0.01592201473608669, 1759519744808783822, 
0.8911722898483276, -0.2516680359840393, 0.0017908140304328604, 1759519744847496375, 
0.6883112192153931, -0.20286130905151367, 0.0033494275626849233, 1759519744878582130, 
1.295661211013794, 0.07715582847595215, 0.012838678895114164, 1759519744910314842, 
0.03105086088180542, -0.13756805658340454, -0.043572166629351664, 1759519744997276548, 
0.3730853199958801, -0.17165881395339966, -0.038391664991883075, 1759519745027191062, 
1.0298210382461548, -0.30415648221969604, -0.04534439141312056, 1759519745057182552, 
-0.08000785112380981, 0.18335890769958496, 0.0037323563341274033, 1759519745087086072, 
-0.13083815574645996, 0.06297945976257324, 0.02738084364734798, 1759519745118453924, 
-0.8199546337127686, -0.38896292448043823, 0.022335194231767178, 1759519745150239784, 
0.49313586950302124, -0.3062695264816284, 0.03323931444095444, 1759519745177213182, 
0.9358996152877808, 0.5592894554138184, 0.02495348960638281, 1759519745206727449, 
0.6818504333496094, -0.028178870677947998, -0.00825547676668462, 1759519745237056546, 
-0.3245171904563904, 0.08569413423538208, -0.033863750925965386, 1759519745266872983, 
0.5466264486312866, -0.22077345848083496, -0.05347574444836301, 1759519745297112778, 
-0.6127474904060364, -0.46817731857299805, -0.03723459768859309, 1759519745327314259, 
0.59220290184021, 0.24891221523284912, -0.00037921290258383046, 1759519745358693416, 
0.5484110116958618, 0.7076331973075867, 0.011559746194490642, 1759519745391208320, 
0.2109452486038208, -0.7509698867797852, 0.01438551647502235, 1759519745417010878, 
-0.1259002685546875, -0.053728580474853516, 0.01881863259368312, 1759519745446516317, 
-0.39443421363830566, -0.47219812870025635, 0.0008262877036774531, 1759519745469192824, 
-0.25299370288848877, -0.0322917103767395, -0.012425746924812365, 1759519745506720324, 
-0.07058912515640259, 0.680258572101593, -0.04202970670632642, 1759519745536349640, 
1.1140855550765991, -0.27794939279556274, -0.03496766324967408, 1759519745566319623, 
0.10488635301589966, -0.500697910785675, -0.0053527085876070414, 1759519745598385455, 
-0.26244473457336426, 0.5160015821456909, -0.01396870402489033, 1759519745629025431, 
-0.033085644245147705, -0.1976010799407959, 0.004849443420380884, 1759519745666219411, 
0.11186355352401733, 0.43077170848846436, 0.03627107070543242, 1759519745696307483, 
0.06868898868560791, 0.05729192495346069, 0.04029432481863496, 1759519745726844804, 
-0.5741399526596069, 0.29021936655044556, 0.023247926033476606, 1759519745758298974, 
-0.1962810754776001, 0.1068301796913147, -0.047130863210708494, 1759519745795922183, 
-0.040959060192108154, 0.061157941818237305, -0.041069333984011226, 1759519745825903325, 
0.3561359643936157, 0.11841398477554321, -0.013478307814208182, 1759519745855940217, 
-0.6821133494377136, -0.01350027322769165, -0.010974213572288345, 1759519745885996243, 
-1.2546331882476807, -0.3736402988433838, 0.01381685415621554, 1759519745918185533, 
0.09219366312026978, 0.27237528562545776, 0.015489890523282618, 1759519745945805175, 
0.07176393270492554, 0.29233354330062866, 0.004208980298534918, 1759519745974736900, 
-0.09087693691253662, -0.2613978385925293, 0.012474762633985113, 1759519746005641272, 
-0.5314972400665283, -0.18697017431259155, -0.005994592864283577, 1759519746035904058, 
0.9302657246589661, 0.052145540714263916, 0.011407672553779037, 1759519746065678297, 
0.8582759499549866, 0.1527472734451294, -0.0025236981808488524, 1759519746095505325, 
0.7466757893562317, -0.2165021300315857, -0.024198451892840367, 1759519746126306792, 
-0.43947887420654297, 0.04689723253250122, -0.00560035351473878, 1759519746158608682, 
0.22347956895828247, 0.6366857886314392, 0.003988721425463604, 1759519746184375532, 
-0.5662153959274292, -0.3877744674682617, 0.011971715678124143, 1759519746215318593, 
0.7607477307319641, -0.45898008346557617, 0.030255914399354416, 1759519746245223404, 
0.5242218375205994, 0.31424421072006226, 0.013052945811239136, 1759519746275155421, 
0.5611880421638489, -0.17684811353683472, -0.021304619475955855, 1759519746305121536, 
-0.1417841911315918, 0.21421325206756592, -0.033715051569339065, 1759519746335095485, 
-0.17927885055541992, 0.14607256650924683, -0.03404150362981838, 1759519746366018772, 
-0.463421106338501, -0.719151496887207, 0.0005121319259315359, 1759519746398334015, 
0.9400164484977722, 0.11749941110610962, 0.01944612773260134, 1759519746424977180, 
0.8803824186325073, 0.6046231389045715, -0.009073543652875217, 1759519746454953407, 
0.18595266342163086, -0.2345178723335266, 0.003516148275341323, 1759519746484862461, 
-0.5996108055114746, 0.09808653593063354, 0.015728892957286675, 1759519746514794005, 
0.13866102695465088, -0.03887206315994263, 0.013958184472998705, 1759519746544841847, 
-0.5641270875930786, -0.15974277257919312, 0.01924690536776147, 1759519746573750789, 
0.8805838227272034, 0.27811020612716675, -0.017499388380955164, 1759519746606674981, 
0.7408680319786072, -0.12745869159698486, -0.021318275170403224, 1759519746637596857, 
0.4362505078315735, -0.1383797526359558, -0.0034164836040953875, 1759519746664610067, 
-0.1510704755783081, -0.17805826663970947, -0.0069130869811025565, 1759519746694613219, 
0.01311880350112915, 0.5514557957649231, 0.016514611918119232, 1759519746724495320, 
0.11075907945632935, 0.3288193345069885, 0.024004996343836404, 1759519746754445306, 
0.5938366055488586, -0.4636487364768982, 0.004907764895278796, 1759519746784429241, 
0.3920220732688904, -0.11041945219039917, 0.006337147411802995, 1759519746814442519, 
0.9451870918273926, 0.10511636734008789, -0.01334318171974855, 1759519746846049987, 
-0.09702974557876587, -0.048300862312316895, -0.02482497115613498, 1759519746874264606, 
0.3951382040977478, 0.5117300748825073, -0.007698742866232615, 1759519746904202275, 
-1.1551302671432495, -0.37488240003585815, -0.017086401903621425, 1759519746934351022, 
0.557867169380188, -0.4749627113342285, -0.006606037699508251, 1759519746964123097, 
0.9641633033752441, 0.9769212007522583, 0.015324270621436566, 1759519746994105881, 
0.28998154401779175, -0.3806000351905823, 0.0015812080419916905, 1759519747024052037, 
-0.4302098751068115, -0.10761260986328125, 0.02878141039534175, 1759519747054467890, 
-0.0570637583732605, 0.4201863408088684, 0.016235452567774856, 1759519747086049859, 
-0.5021134614944458, -0.15583378076553345, -0.006878674190411558, 1759519747113931437, 
0.8829097151756287, -0.017736613750457764, -0.01015435886406688, 1759519747143858696, 
0.8810569047927856, 0.13275080919265747, -0.026694172022541995, 1759519747172767667, 
0.025338590145111084, -0.5201994776725769, -0.006205284633841098, 1759519747202746429, 
-0.34747767448425293, 0.20967382192611694, -0.002313018022531888, 1759519747233684840, 
-0.21510589122772217, 0.3525869846343994, -0.0057277259301034885, 1759519747263669147, 
-0.5567659735679626, -0.023668289184570312, 0.007127392637565796, 1759519747294071552, 
0.9210925102233887, -0.06982791423797607, 0.013056827346181892, 1759519747326375849, 
0.41009289026260376, 0.02134871482849121, 0.005249461548480498, 1759519747353521137, 
-0.20306122303009033, -0.40647637844085693, 0.003681965621907768, 1759519747383488790, 
-0.09759753942489624, 0.21821796894073486, -0.020469693149966644, 1759519747413380689, 
0.12489032745361328, 0.2839503288269043, -0.0330728955404695, 1759519747443406433, 
0.40910470485687256, 0.5672898292541504, -0.01431813424023682, 1759519747473557117, 
-0.3818798065185547, -0.26320207118988037, -0.025352523384320664, 1759519747503346883, 
-0.510197639465332, 0.13708412647247314, 0.003091592058469945, 1759519747534050957, 
-0.46454763412475586, 0.05490672588348389, 0.01141394909671273, 1759519747566482323, 
-0.037992894649505615, -0.2733079195022583, -0.0006501832566041223, 1759519747593266342, 
0.28217077255249023, 0.030417561531066895, 0.008866959795932296, 1759519747623085805, 
-0.32103270292282104, 0.2258908748626709, 0.013865321212392683, 1759519747646238070, 
1.0211578607559204, -0.16258442401885986, -0.005785637390302218, 1759519747673009696, 
0.6031202077865601, 0.3519935607910156, -0.003933993225272006, 1759519747702937091, 
0.5075665712356567, 0.3512417674064636, -0.02237727822362536, 1759519747726584993, 
-0.12114137411117554, -0.0008990764617919922, -0.0361664395696699, 1759519747753048350, 
-0.14410221576690674, -0.12094515562057495, -0.02500127348503988, 1759519747782815831, 
0.31093209981918335, 0.11015152931213379, -0.0008348808755773586, 1759519747805516720, 
-0.2749927043914795, -0.06879234313964844, 0.00707786701245868, 1759519747842999560, 
-0.35417836904525757, 0.4991253614425659, 0.01982462261810564, 1759519747872667376, 
0.4456404447555542, -0.11988896131515503, 0.0064656626288482864, 1759519747901882318, 
-0.28042346239089966, -0.3335978388786316, -0.0178110050887813, 1759519747934095731, 
0.11395007371902466, 0.11923408508300781, -0.02675328683447292, 1759519747965319717, 
-0.3201589584350586, -0.40725386142730713, -0.03686319200877115, 1759519748002460243, 
0.716347873210907, -0.1381678581237793, 0.016965975991746717, 1759519748032394678, 
0.5829253792762756, 0.6985494494438171, 0.01458173142114992, 1759519748061405590, 
0.5891631841659546, -0.0935279130935669, 0.004332658162603454, 1759519748094090541, 
-0.434428870677948, 0.0008457303047180176, 0.021264535759073853, 1759519748124235511, 
0.672741174697876, -0.12181496620178223, 0.0008370911574461054, 1759519748162245416, 
0.5001920461654663, 0.2132406234741211, -2.005075392828387e-05, 1759519748192203337, 
0.37733685970306396, 0.41074997186660767, -0.028128667802120998, 1759519748222126784, 
-0.3222878575325012, -0.39943307638168335, -0.04476599789616731, 1759519748254402966, 
-0.4810636639595032, -0.01833897829055786, -0.020156722432778676, 1759519748282103457, 
0.1336759328842163, 0.2803388237953186, -0.008069110753152855, 1759519748311930050, 
0.6397873759269714, -0.34111344814300537, 0.004757326777973988, 1759519748341982793, 
0.07661020755767822, 0.36031854152679443, 0.032616629258605895, 1759519748371875655, 
-0.523553729057312, -0.2477467656135559, 0.017685189036991976, 1759519748401843005, 
0.12567973136901855, -0.38466328382492065, 0.00018045045996613302, 1759519748432277929, 
0.36696702241897583, 0.4675004482269287, -0.02536282088297924, 1759519748462538110, 
-0.711092472076416, -0.5962128639221191, -0.03787517700669573, 1759519748494087317, 
0.5069568753242493, 0.26253271102905273, -0.0094370498779959, 1759519748521703801, 
0.2430042028427124, 0.4441629648208618, 0.0006375011084314962, 1759519748551574377, 
-0.24520385265350342, -0.08325642347335815, 0.0026283403881650867, 1759519748581529463, 
-0.6032223701477051, -0.05080920457839966, 0.02270567606682837, 1759519748611641862, 
-0.39673054218292236, 0.04516476392745972, 0.018934953366484958, 1759519748640454181, 
-0.09085690975189209, -0.2361045479774475, 0.011962218245329113, 1759519748671446234, 
0.23329651355743408, -0.06445038318634033, -0.01206096682643134, 1759519748702364203, 
0.16571801900863647, 0.11887747049331665, -0.035451185216450326, 1759519748734179033, 
-0.5619481801986694, -0.08160161972045898, -0.03232955795713734, 1759519748761269292, 
-0.2661348581314087, 0.22667860984802246, -0.0387301678680365, 1759519748791208078, 
-0.5087261199951172, 0.10119038820266724, -0.024838041390106817, 1759519748821159877, 
-0.4648892879486084, -0.18309390544891357, 0.005823281528410506, 1759519748851092854, 
0.24552983045578003, 0.16298365592956543, 0.004544019362784197, 1759519748881187851, 
0.525581955909729, 0.09582728147506714, -0.00498458572294835, 1759519748911155946, 
-0.6451423764228821, 0.13393908739089966, -0.011234773117096126, 1759519748942431717, 
0.23767250776290894, -0.46169817447662354, -0.03875066335705791, 1759519748974056601, 
0.3921372890472412, 0.3112372159957886, -0.029002093650272672, 1759519749001166008, 
0.6120569705963135, -0.06672096252441406, -0.006121276693815023, 1759519749031092881, 
-0.3042812943458557, -0.2806141972541809, -0.037616492201522175, 1759519749061063031, 
-0.9505424499511719, 0.0034779906272888184, -0.03765678976118576, 1759519749090956363, 
-0.5099669694900513, 0.20100301504135132, -0.02834867345291509, 1759519749120927654, 
0.7949256896972656, -0.19234126806259155, -0.02322858932917194, 1759519749150913742, 
-0.7207227349281311, 0.24968326091766357, -0.006284033640633906, 1759519749182157947, 
-0.19141167402267456, 0.0028187036514282227, -0.011278643002485123, 1759519749213023700, 
0.06052953004837036, -0.15753239393234253, 0.0403001698375024, 1759519749240864252, 
-0.3970303535461426, 0.001226186752319336, 0.030786412392087195, 1759519749270840983, 
-0.38131290674209595, 0.1184854507446289, -0.046663508315140066, 1759519749300835331, 
-0.10492300987243652, -0.002275407314300537, -0.038654192181492804, 1759519749330809471, 
-0.11160087585449219, 0.3405371904373169, -0.023199546148007812, 1759519749360861490, 
-0.27184635400772095, -0.47726690769195557, -0.028191960927889677, 1759519749390843682, 
-0.33340132236480713, -0.3636549115180969, 0.0006310686697336176, 1759519749422615003, 
0.33470088243484497, 0.6466467976570129, 0.004292798515433963, 1759519749450209614, 
-0.7515906095504761, -0.23426413536071777, -0.010401739043831983, 1759519749480862690, 
-0.03609424829483032, -0.14376181364059448, -0.009978497282755405, 1759519749510706227, 
-0.018034398555755615, 0.6380811929702759, -0.01566932518645427, 1759519749540011653, 
0.0021329522132873535, -0.5019252896308899, -0.040097992860331055, 1759519749569940572, 
0.12558621168136597, 0.2697814702987671, -0.010343300924914423, 1759519749599950889, 
0.51838219165802, 0.08341336250305176, -0.0037087612221857404, 1759519749630473713, 
-1.2734649181365967, -0.29062288999557495, 0.010501130249083016, 1759519749662240143, 
-0.4501881003379822, 0.1883608102798462, -0.013417796900599153, 1759519749689858272, 
-0.2541254162788391, -0.25832462310791016, -0.028934375174041252, 1759519749718746852, 
-0.36143362522125244, 0.10074543952941895, -0.03477851622969146, 1759519749749636532, 
0.42989999055862427, 0.3285832405090332, -0.024829935045002107, 1759519749779675212, 
0.21969735622406006, -0.8323459625244141, -0.016167187726015417, 1759519749809568380, 
-1.417899250984192, 0.02537459135055542, -0.022290624529805448, 1759519749839597999, 
-0.05443012714385986, 0.35237568616867065, -0.030026584687929903, 1759519749870899857, 
0.05428338050842285, 0.3826953172683716, 0.0062490543599646115, 1759519749902243448, 
-0.3410618305206299, 0.17877042293548584, 0.007373776052550024, 1759519749929419829, 
0.6398094296455383, -0.5361131429672241, -0.01737701396085072, 1759519749959379151, 
-0.32698941230773926, 0.1874314546585083, 0.009743678764006903, 1759519749989268695, 
-1.1386127471923828, -0.006903648376464844, -0.004811106279536067, 1759519750019224344, 
-0.16704589128494263, 0.015532732009887695, -0.02004746220697407, 1759519750049247539, 
-0.2179011106491089, -0.20679646730422974, -0.02788139958378601, 1759519750079203038, 
0.17034274339675903, -0.053383708000183105, -0.02986914606562562, 1759519750110225613, 
0.10463553667068481, 0.065346360206604, -0.012981682358781017, 1759519750142224690, 
0.3263370990753174, 0.4962836503982544, -0.01713683363477675, 1759519750169103151, 
-1.24713134765625, -0.12607109546661377, -0.022876883790877302, 1759519750198930458, 
-0.1279228925704956, -0.5927514433860779, -0.0032515780280919174, 1759519750228906006, 
0.09628140926361084, -0.11495685577392578, 0.021951496894242722, 1759519750259055216, 
-0.17641133069992065, 0.31683778762817383, 0.009253074578112922, 1759519750288800195, 
0.1450369954109192, 0.47134310007095337, -0.01754530220068202, 1759519750318806648, 
-0.5240289568901062, -0.07792162895202637, -0.04201080682058881, 1759519750350554525, 
-0.6734153628349304, -0.7195669412612915, -0.04807514857669154, 1759519750381707164, 
-0.06443583965301514, 0.25858497619628906, -0.028620540806788435, 1759519750408824891, 
-0.16021740436553955, -0.4091610312461853, 0.0026343573102352046, 1759519750438698379, 
0.3265443444252014, 0.05680358409881592, 0.031356620784862864, 1759519750468486590, 
-0.4809221625328064, 0.05929452180862427, 0.030780381967921072, 1759519750498479071, 
0.5855762958526611, 0.13674932718276978, 0.018366720702031526, 1759519750528682312, 
0.13966268301010132, -0.1502324938774109, -0.0026907878223048844, 1759519750558389169, 
0.5517122745513916, -0.018728256225585938, -0.006630051641601398, 1759519750590720628, 
0.1947140097618103, -0.1830686330795288, -0.020018657382921096, 1759519750621005654, 
0.04408460855484009, 0.08658027648925781, -0.029305730662266827, 1759519750658884849, 
-0.06834989786148071, -0.8099962472915649, -0.0230550121257724, 1759519750688226582, 
0.6009785532951355, -0.03125166893005371, 0.005567967105377758, 1759519750718559745, 
0.30355238914489746, 0.9035082459449768, 0.01005137499455927, 1759519750750559051, 
-0.38776373863220215, -0.0007488131523132324, 0.011486903091127149, 1759519750778126712, 
0.6376058459281921, -0.1671321988105774, -0.03459163919264488, 1759519750837972949, 
0.49019622802734375, 0.35653769969940186, -0.014041224379528415, 1759519750868207652, 
0.5855197310447693, -0.1605515480041504, -0.018675183585122566, 1759519750897823986, 
0.5821710228919983, 0.8108216524124146, -0.040432334068585964, 1759519750927808999, 
-0.20243358612060547, -0.40597957372665405, -0.008445198852540645, 1759519750959290376, 
-0.1925060749053955, -0.3767620921134949, 0.022123306200804948, 1759519750991173746, 
0.3233097195625305, 0.6668540835380554, 0.04079585745138236, 1759519751017671097, 
-0.2786599397659302, -0.3020055294036865, 0.029720886142080304, 1759519751046603731, 
0.2995874285697937, 0.014592468738555908, 0.0162295693105856, 1759519751077527922, 
0.6728417277336121, -0.3219112753868103, -0.01968890417970267, 1759519751107512552, 
-0.2936391234397888, -0.3104395270347595, -0.02622093247040524, 1759519751137515958, 
-0.018615007400512695, 0.8865287899971008, -0.04963515433232894, 1759519751167393593, 
0.06882864236831665, 0.278780460357666, -0.05406302782480602, 1759519751198633482, 
-0.5888324975967407, -0.8348913788795471, -0.022316034786623043, 1759519751230541103, 
-1.0954926013946533, 0.3419506549835205, 0.006509224882001773, 1759519751267231165, 
-0.7453902959823608, 0.4017450213432312, 0.017842804478413497, 1759519751297244366, 
-0.03285270929336548, -0.329584538936615, 0.021784937693238693, 1759519751327165928, 
0.24050474166870117, -0.4492340683937073, -0.005976251999854198, 1759519751358415306, 
0.04634296894073486, 0.12442368268966675, -0.027141611619634996, 1759519751390318802, 
0.5316298604011536, -0.7068147659301758, -0.026934919662074435, 1759519751426969385, 
0.0588231086730957, 0.17914742231369019, -0.03383103633298988, 1759519751456966881, 
0.5409349203109741, 0.08648508787155151, -0.03189720356217304, 1759519751486956701, 
0.12108451128005981, 0.05019289255142212, -0.0015514416369417088, 1759519751518417723, 
0.03503680229187012, 0.038094401359558105, 0.008523334976298787, 1759519751549486970, 
-0.32377374172210693, -0.07329493761062622, 0.030578130598586835, 1759519751576846167, 
0.042587876319885254, -0.11378026008605957, 0.026837104003204576, 1759519751606675210, 
-0.13699883222579956, 0.4715595841407776, -0.0027064529428925685, 1759519751636655123, 
0.9110959768295288, -0.06407815217971802, -0.04699414278320148, 1759519751665606119, 
-0.1781260371208191, -0.3481142520904541, -0.04133648874764968, 1759519751696565368, 
0.41473114490509033, -0.3023644685745239, -0.026998870458419578, 1759519751727134898, 
-0.633863627910614, 0.19405490159988403, -0.011359813525326046, 1759519751758456583, 
0.3135518431663513, 0.7298944592475891, 0.018525707138036692, 1759519751786460896, 
-0.1927046775817871, 0.18977832794189453, 0.0226592504795151, 1759519751816396062, 
0.8219636082649231, -1.0110559463500977, 0.005236066699200876, 1759519751846405781, 
-0.6231211423873901, 0.19366639852523804, -0.008510050855788324, 1759519751876415170, 
0.25622981786727905, -0.21924114227294922, -0.024089161610219467, 1759519751906257266, 
0.09959918260574341, -0.09533298015594482, -0.0023093954002399797, 1759519751936211423, 
0.747465968132019, -0.4399033784866333, -0.009494799932683842, 1759519751966498206, 
0.9434739947319031, 0.7726383209228516, -0.020284883905203447, 1759519751998549826, 
-0.27522802352905273, -0.12336081266403198, -0.011984759928921626, 1759519752026078145, 
-0.34604692459106445, -0.17212450504302979, 0.013964979226026592, 1759519752056007087, 
0.22066140174865723, 0.19893360137939453, 0.014841858692269321, 1759519752085931508, 
-0.060090839862823486, 0.08442401885986328, 0.028294396659998288, 1759519752115915112, 
0.8898928761482239, 0.2483959197998047, 0.00454150417614855, 1759519752145814017, 
0.2763538956642151, -0.11149752140045166, -0.03646234385787704, 1759519752175825701, 
-0.25032275915145874, -0.6482945680618286, -0.01883553257126881, 1759519752206346358, 
-0.1794082522392273, 0.0626305341720581, -0.005889447916148281, 1759519752239000895, 
0.5349061489105225, 0.5791897773742676, -0.019228772644820553, 1759519752264708071, 
-0.0987551212310791, 0.264107882976532, 0.007162384442086211, 1759519752295646844, 
0.8892384171485901, -0.4000377058982849, 0.01466612464627114, 1759519752325544614, 
-0.002410709857940674, -0.45386165380477905, 0.006329677165789991, 1759519752355526054, 
-0.19409114122390747, 0.5039210915565491, 0.018643911651409634, 1759519752385539064, 
0.10425460338592529, 0.0169525146484375, 0.01898028913463032, 1759519752415427252, 
-0.10753417015075684, -0.12183558940887451, 0.0018569727296613141, 1759519752446464022, 
-0.06560295820236206, 0.11453086137771606, -0.005541427174924854, 1759519752478540633, 
0.479938805103302, -0.49300670623779297, -0.024823938937499585, 1759519752505302025, 
0.1588383913040161, 0.5264947414398193, -0.019559615720740903, 1759519752535224996, 
0.35840654373168945, 0.08391505479812622, 0.004897445170326486, 1759519752565162895, 
-0.4979017972946167, -0.642288088798523, 0.01876732731872998, 1759519752595125953, 
0.0766909122467041, 0.1885690689086914, 0.012673954015947137, 1759519752625086106, 
0.031077325344085693, -0.1885557770729065, 0.01648217080496894, 1759519752655277219, 
0.5999010801315308, 0.2955092191696167, 0.0038265579920600617, 1759519752686835230, 
0.6098828911781311, 0.7157506346702576, -0.020209935944342776, 1759519752717684933, 
-0.16138017177581787, -0.869375467300415, -0.019363517949937264, 1759519752744864929, 
0.03596776723861694, -0.41026729345321655, -0.012080647339448603, 1759519752774859729, 
0.16673517227172852, 0.6341579556465149, -0.0275365146801488, 1759519752804798380, 
0.032227396965026855, 0.22065496444702148, -0.004771951304563342, 1759519752833758478, 
0.07833278179168701, -0.020079612731933594, 0.03331137914587154, 1759519752863664986, 
0.7376719117164612, -0.6013395190238953, 0.022096953556098118, 1759519752893673797, 
-0.2444947361946106, 0.38255774974823, 0.03343841280836095, 1759519752926354995, 
-0.4122012257575989, 0.10407203435897827, 0.03398444713126567, 1759519752954598250, 
0.40458202362060547, -0.1083638072013855, -0.007464975159494457, 1759519752984577186, 
-0.06157064437866211, -0.2480010986328125, -0.03131333957149623, 1759519753014439134, 
1.3673603534698486, -0.039844810962677, -0.0316816671216062, 1759519753044493159, 
0.20816713571548462, 0.4008667469024658, -0.02079932051081391, 1759519753074365674, 
-0.5642658472061157, 0.3957488536834717, 0.0038284683682689273, 1759519753104326711, 
0.023348331451416016, -0.794829785823822, -0.005929140610721817, 1759519753134839611, 
-0.1788414716720581, 0.05372685194015503, 0.008579592144794928, 1759519753166364720, 
-0.006840646266937256, -0.053662896156311035, 0.028807059516584944, 1759519753194273986, 
0.5295664072036743, 0.13602733612060547, 0.001915882819860335, 1759519753224157676, 
-0.0062326788902282715, 0.7917295694351196, -0.017523607893432668, 1759519753254192199, 
-0.14619314670562744, -0.37836700677871704, -0.004292144793897885, 1759519753284095020, 
-0.022632479667663574, 0.29456841945648193, -0.00035189709289110035, 1759519753314253488, 
0.16519850492477417, -0.022148072719573975, -0.0073536669779939836, 1759519753344016621, 
0.48911964893341064, -0.30657821893692017, -0.017721314778532504, 1759519753374383443, 
-1.0888336896896362, 0.08205246925354004, 0.0072030113282884915, 1759519753406688644, 
0.6131718158721924, 0.3015490770339966, 0.018857994287950694, 1759519753443798780, 
-0.2585628628730774, -0.5468724966049194, 0.0013190396521836505, 1759519753473989966, 
0.592689037322998, -0.003623068332672119, -0.01830376531637758, 1759519753503681539, 
-0.37123626470565796, 0.1967143416404724, -0.006186458099673159, 1759519753534830258, 
0.42830878496170044, -0.02784186601638794, -0.013877977456406235, 1759519753566591342, 
0.21564006805419922, 0.35729366540908813, -0.02481195754412413, 1759519753594023396, 
0.6696868538856506, -0.8021532297134399, -0.025634082541605565, 1759519753623516299, 
-0.0941113829612732, -0.04813432693481445, -0.0034791604242296985, 1759519753647156301, 
-0.5512778162956238, -0.5372954607009888, -0.0019061116968726963, 1759519753672744478, 
0.16742056608200073, 0.332267165184021, 0.0032134988652779807, 1759519753703408732, 
0.3113917112350464, 0.9013998508453369, 0.01787349690754764, 1759519753733308544, 
-1.349515438079834, -0.03709536790847778, 0.013223266803319523, 1759519753763272152, 
-0.00605320930480957, -0.8010484576225281, -0.005042647126339032, 1759519753793256831, 
-0.01794964075088501, -0.2702508568763733, -0.008331551867578621, 1759519753823213151, 
0.09971761703491211, 0.5510692000389099, -0.016518328079022704, 1759519753855129524, 
0.7083756923675537, -0.10980921983718872, -0.015292583004341305, 1759519753886406088, 
-0.18926167488098145, -0.1673814058303833, 0.015218726481506299, 1759519753934497458, 
0.7151297330856323, -0.37767189741134644, 0.006459352908361854, 1759519753966274748, 
-0.38811641931533813, 0.5066659450531006, 0.009678329162167794, 1759519754003077837, 
0.8527458310127258, -0.005909979343414307, -0.00990068162779281, 1759519754032835713, 
0.07118618488311768, -0.7108407020568848, -0.023722904668501153, 1759519754062836935, 
0.3393259644508362, 0.4512758255004883, -0.02560102704387581, 1759519754094276785, 
-1.2523841857910156, -0.35368257761001587, -0.048483794403829564, 1759519754124949387, 
0.5931215882301331, -0.6153770685195923, -0.022759105202239078, 1759519754162687777, 
-0.06842541694641113, 0.1322629451751709, 0.009474133521337566, 1759519754192867689, 
0.534572422504425, 0.8144890069961548, 0.020904720737555692, 1759519754222827053, 
-0.9082921743392944, 0.026996850967407227, 0.04341330099913703, 1759519754254707940, 
0.5295644998550415, -0.6200433373451233, 0.03287200509591096, 1759519754282562058, 
0.16921943426132202, -0.5053009986877441, -0.028819509372811917, 1759519754312627576, 
0.7192308306694031, 0.36667144298553467, -0.025935728235279808, 1759519754342363786, 
0.12155389785766602, -0.1339779496192932, -0.008343460257283828, 1759519754372330113, 
