acc_x, acc_y, angular_z, stamp, 
-0.03997337818145752, -0.021938562393188477, -9.839048053015866e-10, 1759518748417077786, 
-0.023569345474243164, 1.4603137969970703e-05, -6.201589920853903e-10, 1759518748447126747, 
0.03432917594909668, -0.0051274895668029785, -3.2000828452986014e-10, 1759518748477058894, 
0.0538216233253479, -0.008466064929962158, -1.613142921034382e-10, 1759518748507115074, 
-0.02565521001815796, -0.008068382740020752, 3.9877216207206596e-11, 1759518748537053182, 
-0.061316490173339844, 0.004842281341552734, 2.5298366996134993e-10, 1759518748568816658, 
-0.0015696287155151367, 0.008666574954986572, 3.6089910837070434e-10, 1759518748596190316, 
0.04685497283935547, -0.016257524490356445, 3.6933691686488556e-10, 1759518748626067603, 
0.0034397244453430176, 0.00013583898544311523, 3.1245819927485834e-10, 1759518748647981610, 
-0.02007436752319336, -0.0067209601402282715, 7.425285218947676e-10, 1759518748676087200, 
-0.03772526979446411, 0.018611431121826172, 7.194916991020238e-10, 1759518748706219909, 
0.06493669748306274, -0.006400346755981445, 5.524037148986477e-10, 1759518748735885541, 
0.03227788209915161, 0.006279468536376953, 6.261775471832956e-10, 1759518748766296309, 
-0.01317894458770752, 0.006378471851348877, 8.700501737439531e-10, 1759518748796050899, 
-0.07070428133010864, 0.006435990333557129, 9.262183162866665e-10, 1759518748824778629, 
-0.00033795833587646484, 0.0243985652923584, 7.295275798371377e-10, 1759518748856484190, 
0.051623523235321045, -0.0008218288421630859, 5.503877905232316e-10, 1759518748888849676, 
-0.022202610969543457, 0.029874563217163086, 7.928281636652151e-10, 1759518748975495979, 
-0.02648329734802246, 0.006400763988494873, 6.627851787833064e-10, 1759518749065411968, 
-0.02083146572113037, 0.004574894905090332, 5.753537090454395e-10, 1759518749095792037, 
0.008097052574157715, -0.0008721351623535156, 4.3112146580381955e-10, 1759518749127807690, 
0.04755204916000366, -0.011688828468322754, 4.293907106143001e-10, 1759518749155457009, 
0.007704734802246094, -0.015226364135742188, 4.4714307100432764e-10, 1759518749185248814, 
-0.049834370613098145, -0.016897618770599365, 4.864864025212853e-10, 1759518749215224996, 
0.01158064603805542, 0.00828474760055542, 4.447032949182425e-10, 1759518749245109576, 
0.049472033977508545, -0.004290938377380371, 3.179209949137574e-10, 1759518749275031528, 
0.01699012517929077, -0.004194080829620361, 3.1870342162892333e-10, 1759518749305019091, 
-0.058560192584991455, 0.0013428926467895508, 3.8603301937133454e-10, 1759518749336970517, 
-0.04100048542022705, 0.0218314528465271, 0.0009248444092479636, 1759518749367841370, 
0.2569540739059448, 0.01856684684753418, 0.0050614935938063516, 1759518749394868067, 
1.1098366975784302, 0.47604310512542725, 0.12321300272112733, 1759518749424714363, 
0.9761203527450562, 0.19312763214111328, 0.1858713305827235, 1759518749454690785, 
0.6285472512245178, -0.36732572317123413, 0.21212297576183908, 1759518749484658654, 
0.5735317468643188, -0.02700984477996826, 0.28170633011647594, 1759518749514572939, 
0.71525639295578, 0.39609140157699585, 0.31034225308123703, 1759518749544617393, 
0.189178466796875, 0.16183900833129883, 0.3299654032765057, 1759518749576576120, 
0.8241477012634277, 0.04314768314361572, 0.44306380035070164, 1759518749606558604, 
0.7355743646621704, 0.2421852946281433, 0.5375536003695759, 1759518749634400004, 
-0.02557218074798584, 0.012536704540252686, 0.5166855620792342, 1759518749664394283, 
0.3772185444831848, 0.015561044216156006, 0.5329255772069861, 1759518749694285678, 
-0.15896135568618774, 0.3489067554473877, 0.5023474140544982, 1759518749724290048, 
0.13275450468063354, -0.41444873809814453, 0.5005046625127462, 1759518749754266856, 
-0.5698315501213074, 0.027901947498321533, 0.4800808830820671, 1759518749784988768, 
-0.06449216604232788, 0.42707693576812744, 0.470467912343521, 1759518749816516603, 
-0.36353760957717896, -0.13166606426239014, 0.5144206039130518, 1759518749844115892, 
-0.33621495962142944, -0.2573288083076477, 0.4899974327648936, 1759518749874022664, 
0.4866992235183716, 0.5165537595748901, 0.5170232075110578, 1759518749904078562, 
-0.1294255256652832, 0.2447163462638855, 0.4971736790484476, 1759518749933968541, 
-0.11770737171173096, -0.8168677687644958, 0.5349841489677077, 1759518749964087542, 
-0.14817237854003906, -0.035452067852020264, 0.5556926493388593, 1759518749994059300, 
0.0649988055229187, 0.7794358134269714, 0.507899522968785, 1759518750023745069, 
-0.09495687484741211, -0.5348691940307617, 0.44544221467961753, 1759518750056858030, 
0.1806725263595581, -0.3616771697998047, 0.608557701887937, 1759518750082731648, 
-0.03236609697341919, 1.086106300354004, 0.4813770872473933, 1759518750113631850, 
0.04755735397338867, -0.10464459657669067, 0.5106138248942081, 1759518750143597705, 
0.08071422576904297, -0.5020742416381836, 0.5060912095411599, 1759518750173610318, 
0.2584867477416992, 0.7304106950759888, 0.5048196820032257, 1759518750203508889, 
-0.5504881143569946, 0.07525306940078735, 0.5298626858930033, 1759518750233438667, 
-0.2707369923591614, -0.3907359838485718, 0.4866399886121138, 1759518750264671402, 
0.2589322328567505, 0.3438071012496948, 0.4347987669503178, 1759518750297149077, 
-0.05554521083831787, 0.5840439200401306, 0.5157931114767279, 1759518750333452068, 
-0.46562808752059937, 0.06102621555328369, 0.518677525251828, 1759518750363297585, 
0.5344449877738953, -0.3178473711013794, 0.5352201074753735, 1759518750393222159, 
0.14886939525604248, 0.26426202058792114, 0.4780171675412777, 1759518750425086310, 
0.16728967428207397, 0.1755046248435974, 0.5055223140324188, 1759518750456119534, 
0.10525530576705933, 0.08282291889190674, 0.5309188149215777, 1759518750493018167, 
-0.040796637535095215, -0.44809192419052124, 0.4808920394732678, 1759518750522989344, 
0.25357282161712646, 0.36119067668914795, 0.5078682895559326, 1759518750552991888, 
0.055551111698150635, 0.562666118144989, 0.4623864419876678, 1759518750584657498, 
0.005215942859649658, -0.5513636469841003, 0.49459351237263227, 1759518750614390638, 
-0.2720494866371155, 0.49338293075561523, 0.5199916432665458, 1759518750642877977, 
0.5146996378898621, 0.4280371069908142, 0.5301484430920245, 1759518750671757139, 
-0.48369938135147095, 0.23973023891448975, 0.4654485174944299, 1759518750694686770, 
-0.063323974609375, 0.9990308880805969, 0.558180583820051, 1759518750722678063, 
-0.37214547395706177, -0.6619676947593689, 0.5049405492414059, 1759518750752591625, 
0.02848052978515625, -0.1779293417930603, 0.5211368963984431, 1759518750782554558, 
0.4886586666107178, 1.1374268531799316, 0.5162592056303077, 1759518750812530215, 
-0.3822145462036133, -0.5139464735984802, 0.4889470623334504, 1759518750842533142, 
-0.32386040687561035, -0.43482810258865356, 0.47259740599104993, 1759518750872987715, 
-0.20595937967300415, 0.9207435250282288, 0.46673611379534535, 1759518750904805097, 
0.1747671365737915, -0.19094973802566528, 0.5642980934763075, 1759518750932334813, 
-0.07227730751037598, -0.47152072191238403, 0.5155222747884656, 1759518750962272337, 
0.5972692370414734, 0.8383264541625977, 0.4738664436118758, 1759518750992238276, 
-0.7731093764305115, -0.22535383701324463, 0.47033853112719753, 1759518751022209191, 
0.18509554862976074, -0.5239611864089966, 0.4921734193719342, 1759518751052136228, 
-0.06587207317352295, 0.9455318450927734, 0.5276153672575781, 1759518751082139962, 
0.06538712978363037, 0.24369406700134277, 0.5171870677704037, 1759518751112822107, 
-0.27050137519836426, -0.365653395652771, 0.4859758820096904, 1759518751143753980, 
-0.016766726970672607, 0.42358094453811646, 0.5245042936406412, 1759518751172008284, 
0.23958349227905273, -0.05444997549057007, 0.5242576020463495, 1759518751201911436, 
-0.38158249855041504, -0.13940924406051636, 0.5309725762224409, 1759518751231831847, 
0.26260286569595337, 0.05213510990142822, 0.48827746714432513, 1759518751261836659, 
-0.3746187090873718, 0.26170241832733154, 0.4560052649589579, 1759518751291770663, 
0.2738892436027527, -0.06918013095855713, 0.4913156447101569, 1759518751320745286, 
-0.26082319021224976, -0.007201552391052246, 0.48206222880477906, 1759518751352559909, 
0.27670639753341675, 0.7940484285354614, 0.4578021532786796, 1759518751385479509, 
-0.2293117642402649, 0.4448949694633484, 0.5349696915481065, 1759518751412300490, 
0.061870276927948, -0.5117602944374084, 0.48762643328384425, 1759518751442278532, 
-0.5587232112884521, 0.29620593786239624, 0.525793769427365, 1759518751472116222, 
0.35083091259002686, 0.6298309564590454, 0.5544681835600918, 1759518751501425478, 
-0.5403963923454285, -0.33656007051467896, 0.5108675468354701, 1759518751531407327, 
0.5240776538848877, -0.27773749828338623, 0.5039820075393527, 1759518751561364886, 
0.4682655930519104, 0.7386177778244019, 0.49438180360639883, 1759518751592558135, 
-0.40912777185440063, -0.2033270001411438, 0.4513639708417309, 1759518751624273634, 
-0.265805721282959, -0.5309358239173889, 0.5663046785165347, 1759518751651171353, 
-0.2956386208534241, 1.019741177558899, 0.5139282169951216, 1759518751681168186, 
-0.12814903259277344, -0.14188683032989502, 0.4961077875511888, 1759518751711168219, 
-0.367800235748291, -0.6869522333145142, 0.5061723133788941, 1759518751741070365, 
0.6128610372543335, 0.7381560802459717, 0.48341236451933056, 1759518751770983444, 
-0.32453715801239014, -0.11716347932815552, 0.4747762136854675, 1759518751801021675, 
0.522051990032196, -0.611457109451294, 0.47716377355863043, 1759518751832551182, 
-0.5203209519386292, 1.012851595878601, 0.5180699668118244, 1759518751860960195, 
0.007475018501281738, 0.068156898021698, 0.4924685380082203, 1759518751890811172, 
-0.448890745639801, -0.6217212677001953, 0.5246227099367791, 1759518751919736783, 
0.5184062719345093, 0.6774415969848633, 0.4963558070251665, 1759518751950704130, 
0.35166919231414795, 0.31151729822158813, 0.5254781598299167, 1759518751980707192, 
-0.3207293748855591, -0.5235453248023987, 0.507024001258629, 1759518752010590688, 
0.016284942626953125, 0.10685497522354126, 0.5317975722343682, 1759518752040594126, 
-0.23703372478485107, 0.48601239919662476, 0.4642905953141579, 1759518752073350618, 
0.014887452125549316, -0.30494076013565063, 0.5422449852972506, 1759518752100580212, 
-0.12759709358215332, 0.18925923109054565, 0.5174159428939104, 1759518752130442323, 
0.3852882385253906, 0.3500608801841736, 0.49026368473889925, 1759518752160398915, 
-0.4319966435432434, -0.3406907320022583, 0.4724777169731185, 1759518752190559923, 
0.31110548973083496, -0.22141820192337036, 0.49722619906950205, 1759518752220306520, 
-0.5136404037475586, 0.8593120574951172, 0.5083085466843962, 1759518752250273613, 
0.4328126311302185, -0.08731770515441895, 0.5010767013427733, 1759518752280701734, 
-0.3908084034919739, -0.5127572417259216, 0.46961358131498016, 1759518752312635451, 
0.5790780186653137, 0.7072609663009644, 0.528713709918781, 1759518752340182353, 
0.28834229707717896, 0.030806362628936768, 0.4953668297931587, 1759518752370009918, 
-0.5381254553794861, -0.5532748103141785, 0.4958589715311373, 1759518752399998507, 
0.1500927209854126, 0.7096696496009827, 0.5269050669181691, 1759518752428946177, 
0.13236618041992188, 0.3386664390563965, 0.4854231943881426, 1759518752459878254, 
0.45366644859313965, -0.5880022644996643, 0.5064396163403846, 1759518752489850975, 
0.7505229115486145, 0.5034493803977966, 0.5299823608168573, 1759518752521362093, 
-0.5609459280967712, 0.5409301519393921, 0.5258290786767629, 1759518752552630860, 
-0.2856459617614746, -0.8662790060043335, 0.5625678765399338, 1759518752579782276, 
-0.18323123455047607, 0.35402023792266846, 0.5014678359884819, 1759518752609669493, 
0.34761059284210205, 0.6065043807029724, 0.4886684688889519, 1759518752639601702, 
-0.26276659965515137, -0.7673196196556091, 0.48990299417875466, 1759518752669557366, 
-0.0030445456504821777, 0.13792765140533447, 0.4981965702999238, 1759518752699553979, 
0.4716827869415283, 1.077520728111267, 0.4658022018095865, 1759518752729470216, 
-0.33455604314804077, -0.7261415719985962, 0.4768256579300052, 1759518752760912863, 
0.28260791301727295, -0.2241380214691162, 0.4984321708183834, 1759518752792665389, 
0.007466256618499756, 1.0500104427337646, 0.579319709072816, 1759518752819462237, 
-0.28355586528778076, -0.2502349019050598, 0.514391249559335, 1759518752849351771, 
-0.03726750612258911, -0.5277390480041504, 0.4714558397631252, 1759518752879418375, 
-0.15797221660614014, 0.18308264017105103, 0.47279871846881477, 1759518752909389701, 
0.6057807207107544, 0.2606543302536011, 0.5214900284607029, 1759518752939136336, 
-0.37728750705718994, -0.11446058750152588, 0.507579439543278, 1759518752969282757, 
0.6892122030258179, -0.12173688411712646, 0.48470081898274797, 1759518753000628011, 
-1.0581128597259521, 0.38477522134780884, 0.4900686365624352, 1759518753030853989, 
0.4938637614250183, -0.13917601108551025, 0.5668623326014093, 1759518753057977738, 
-0.27832138538360596, -0.2925034761428833, 0.5130588610950007, 1759518753088866367, 
0.4413105249404907, 0.86867356300354, 0.5044913677623472, 1759518753118868515, 
0.20379573106765747, 0.07039839029312134, 0.4961434013101445, 1759518753148818832, 
-0.4086441397666931, -0.7547683119773865, 0.5156708277074138, 1759518753177752847, 
0.1940368413925171, 0.7519195675849915, 0.48170259319396147, 1759518753207749443, 
-0.19698190689086914, 0.21731412410736084, 0.45176008815564966, 1759518753240702019, 
-0.06155663728713989, -0.843829870223999, 0.5269958289337674, 1759518753268668265, 
-0.09526515007019043, 0.6713421940803528, 0.5148218670560607, 1759518753297728483, 
0.605017364025116, 0.3665841221809387, 0.4874516059503939, 1759518753328559981, 
-0.5110517144203186, -0.7463369369506836, 0.45872528860366707, 1759518753358469258, 
0.6340932846069336, 0.4408472180366516, 0.5072249841863573, 1759518753388425040, 
-0.5340022444725037, 0.6425297260284424, 0.5435819040427001, 1759518753418438029, 
-0.12111753225326538, -0.9002792239189148, 0.5264962210220008, 1759518753447732385, 
0.034388959407806396, 0.3951228857040405, 0.4607361149808903, 1759518753481153499, 
0.23612135648727417, 0.6255761981010437, 0.5353721067388393, 1759518753508262062, 
0.33321613073349, -0.8019708395004272, 0.5061571862835391, 1759518753538179161, 
-0.4975343942642212, 0.16280782222747803, 0.5457796524944857, 1759518753568148860, 
0.24245810508728027, 0.6628981828689575, 0.5148743454668542, 1759518753598123803, 
-0.3259749412536621, -0.5360122323036194, 0.5008032532839597, 1759518753628049480, 
0.3791504502296448, -0.15889090299606323, 0.4764102055383829, 1759518753658049576, 
-0.4049474000930786, 0.6497688889503479, 0.48117600007502237, 1759518753687731463, 
0.5939887166023254, -0.1605445146560669, 0.48784510482854165, 1759518753719738551, 
-0.4302743673324585, -0.039806246757507324, 0.516292804376148, 1759518753748213258, 
0.23388755321502686, 0.12916463613510132, 0.47437826096363533, 1759518753777801456, 
0.33564722537994385, -0.2693268656730652, 0.39447609059547056, 1759518753801235762, 
0.07133346796035767, 0.23828750848770142, 0.5473695822860152, 1759518753827865088, 
1.0591864585876465, 0.4779353737831116, 0.5449212999778834, 1759518753857700882, 
-0.39718693494796753, -0.2673746943473816, 0.5220731084027229, 1759518753887617783, 
-0.22800588607788086, -0.018834233283996582, 0.4980886834551138, 1759518753917651528, 
-0.1886191964149475, 0.2455393671989441, 0.514230854529076, 1759518753947648148, 
0.27133452892303467, -0.226148784160614, 0.5055135986546831, 1759518753977665516, 
-0.06536448001861572, 0.14307624101638794, 0.4821927419502037, 1759518754007725631, 
0.19567197561264038, 0.4199684262275696, 0.44756818420003597, 1759518754040714893, 
-0.2355296015739441, -0.289059579372406, 0.5791608721683376, 1759518754067601273, 
0.2779814600944519, -0.26573801040649414, 0.5415454844522949, 1759518754097510716, 
-0.15637189149856567, 0.7417852282524109, 0.5327315995910312, 1759518754127510258, 
0.03909987211227417, 0.09669387340545654, 0.47744510828082254, 1759518754157511369, 
0.0069866180419921875, -0.6304218769073486, 0.47375263921001903, 1759518754187417540, 
0.3256436586380005, 0.6228247880935669, 0.48290199555916025, 1759518754217562927, 
0.25643491744995117, 0.3254638910293579, 0.4607030039389428, 1759518754249220356, 
-0.833136260509491, -0.8057791590690613, 0.49805300892234733, 1759518754279545356, 
0.20609307289123535, -0.2801099419593811, 0.5437961600560035, 1759518754307652344, 
-0.0011535882949829102, 0.8765415549278259, 0.5107049072399881, 1759518754337551082, 
-0.10008805990219116, -0.28483641147613525, 0.5122881275623782, 1759518754367406807, 
-0.45488888025283813, -0.41198569536209106, 0.5286133679878819, 1759518754397385615, 
0.6895442605018616, 0.6787161827087402, 0.5260908629475368, 1759518754427509026, 
-0.29141128063201904, 0.13860374689102173, 0.485965792773776, 1759518754457661839, 
0.4192640781402588, -0.6780188679695129, 0.4637328279918506, 1759518754489486602, 
-0.5053204298019409, 0.5498485565185547, 0.5650642282399395, 1759518754516678168, 
0.10460543632507324, 0.28542524576187134, 0.4986033368576885, 1759518754547295811, 
0.09499084949493408, -0.2875315546989441, 0.5163757227840737, 1759518754576563658, 
-0.01210331916809082, 0.25885725021362305, 0.49187072403802323, 1759518754606526772, 
-0.09102082252502441, 0.18308991193771362, 0.490416869702586, 1759518754636480870, 
0.2538883686065674, -0.19880247116088867, 0.5030861406650879, 1759518754666420700, 
-0.1643851399421692, 0.017412006855010986, 0.4756855227367223, 1759518754697672277, 
-0.24709552526474, 0.13896411657333374, 0.49997796773610553, 1759518754727746159, 
0.37291157245635986, -0.04019683599472046, 0.5061869717301842, 1759518754756336877, 
-0.38506847620010376, 0.135753333568573, 0.4556198050692341, 1759518754786157106, 
0.5298527479171753, 0.3308263421058655, 0.47456958045357034, 1759518754816250548, 
-0.5073607563972473, -0.21581757068634033, 0.5152503760295706, 1759518754846142270, 
0.6284151673316956, -0.22657978534698486, 0.5259400311567257, 1759518754876091512, 
-0.37438684701919556, 0.5228719711303711, 0.5310344325305996, 1759518754906013857, 
-0.2536275386810303, -0.06660646200180054, 0.4895751284109491, 1759518754937080841, 
0.2083069086074829, -0.21090322732925415, 0.47029935304466486, 1759518754968870960, 
0.06339305639266968, 0.6162036061286926, 0.5647037976245614, 1759518754995960194, 
-0.17393803596496582, 0.701903223991394, 0.5029117991307469, 1759518755035859080, 
0.2083338499069214, -0.13503968715667725, 0.5172674111792007, 1759518755064751432, 
0.3919895887374878, -0.5220125913619995, 0.4318470685795246, 1759518755097207307, 
-0.18455475568771362, 0.6787645816802979, 0.4782489101061415, 1759518755128702609, 
-0.3614289164543152, -0.07955926656723022, 0.5959831142617478, 1759518755155658742, 
-0.4465567469596863, -0.34586673974990845, 0.5247786813953169, 1759518755185574482, 
0.637211263179779, 0.7169960141181946, 0.5137015367733724, 1759518755215554674, 
-0.1755884289741516, -0.17067772150039673, 0.470492905224611, 1759518755245424601, 
0.2300642728805542, -0.8368790149688721, 0.49167483832912706, 1759518755275444842, 
-0.09387743473052979, 1.0283348560333252, 0.5337512071933419, 1759518755305384648, 
0.2799115777015686, 0.3168405294418335, 0.462503398585984, 1759518755337293450, 
-0.425129771232605, -0.6597533822059631, 0.4500056279567657, 1759518755368370890, 
-0.07946920394897461, 0.47647762298583984, 0.5398742853802942, 1759518755395314585, 
-0.3897722363471985, 0.23153644800186157, 0.541924264120132, 1759518755425147019, 
0.29930663108825684, -0.3344789147377014, 0.5445997302354644, 1759518755455143176, 
0.42169952392578125, 0.26964515447616577, 0.5031549851305113, 1759518755485066036, 
0.31781041622161865, 0.1448701024055481, 0.4804200513145802, 1759518755515015581, 
0.44733983278274536, -0.20155459642410278, 0.485162922760116, 1759518755545336901, 
0.21474415063858032, 0.19387733936309814, 0.4753394063758299, 1759518755576921897, 
-0.6677812337875366, 0.47720658779144287, 0.492904188481957, 1759518755606951920, 
0.12998849153518677, -0.14095991849899292, 0.5181115383924126, 1759518755634872482, 
-0.3959468603134155, -0.16399335861206055, 0.5057976404388363, 1759518755664788172, 
-0.06756448745727539, 0.2228335738182068, 0.5154594655285593, 1759518755694719721, 
0.22600096464157104, -0.09640246629714966, 0.514071132030775, 1759518755723729079, 
-0.5932772159576416, -0.26942652463912964, 0.46160223408952855, 1759518755754933827, 
0.2629035711288452, -0.17477476596832275, 0.5025757054793846, 1759518755785389249, 
-0.1661304235458374, 0.7718233466148376, 0.48720231498002553, 1759518755816959751, 
0.47038567066192627, -0.4717811346054077, 0.5610498804964831, 1759518755844592306, 
-0.2649514079093933, -0.1265231966972351, 0.5166177162328432, 1759518755874446960, 
0.02291172742843628, 0.20959210395812988, 0.44739955416415117, 1759518755896922190, 
-0.15523111820220947, -0.6223896741867065, 0.5561873338876709, 1759518755924469812, 
-0.0578233003616333, 0.522598147392273, 0.5195719505595708, 1759518755954326159, 
0.5634486079216003, 0.45284390449523926, 0.5015159866375232, 1759518755984284334, 
-0.7834744453430176, -0.9043020606040955, 0.5080269069461879, 1759518756014257358, 
0.48845142126083374, 0.21231883764266968, 0.49391865078158903, 1759518756044156805, 
-0.4429594874382019, 0.7896241545677185, 0.48484021738595345, 1759518756074161220, 
-0.2587304711341858, -0.8680121898651123, 0.4684292596590564, 1759518756105715639, 
0.18944698572158813, 0.19879329204559326, 0.4769761488752835, 1759518756137060727, 
0.101096510887146, 1.0126005411148071, 0.5564249372154748, 1759518756164072377, 
0.07862097024917603, -0.6699155569076538, 0.5023334554638713, 1759518756193970064, 
-0.21254754066467285, -0.020315587520599365, 0.4899765625437117, 1759518756223886840, 
-0.07954180240631104, 0.6018470525741577, 0.5072684506267993, 1759518756253881120, 
-0.1579034924507141, -0.592120349407196, 0.5000405027167664, 1759518756283834213, 
-0.003686070442199707, -0.2678326368331909, 0.5341078026593021, 1759518756312750870, 
-0.14078933000564575, 0.7218608260154724, 0.4804403957032731, 1759518756345171232, 
0.22203856706619263, 0.03617382049560547, 0.4511674934375295, 1759518756376955107, 
-0.013977110385894775, -0.17664146423339844, 0.5736689330872647, 1759518756402766450, 
0.16044366359710693, 0.2194817066192627, 0.49526933521701155, 1759518756433616366, 
-0.7441840767860413, 0.14785712957382202, 0.5137663143953056, 1759518756463522752, 
0.17713284492492676, -0.2986310124397278, 0.497579534331615, 1759518756493492882, 
0.005507111549377441, 0.3485735058784485, 0.4505576460775455, 1759518756523469707, 
0.40936487913131714, -0.10204160213470459, 0.4896516716579062, 1759518756552746716, 
-0.09313839673995972, -0.5198203921318054, 0.5046714150473033, 1759518756584959879, 
-0.19408732652664185, 0.6195984482765198, 0.49107848613439037, 1759518756616385257, 
-0.006343364715576172, 0.40857362747192383, 0.525625699115997, 1759518756643312089, 
-0.42219144105911255, -0.7711285352706909, 0.45851613135555147, 1759518756673187470, 
0.487213671207428, 0.6062108278274536, 0.462812940826053, 1759518756694729532, 
-0.01867091655731201, 0.5720354914665222, 0.5889300279986758, 1759518756733104407, 
0.17455577850341797, -0.5013597011566162, 0.539673511292525, 1759518756763042011, 
0.10748511552810669, 0.14580553770065308, 0.4979255979553178, 1759518756793076413, 
0.34099698066711426, 0.602861762046814, 0.4448340608269067, 1759518756825000303, 
-0.5390562415122986, -0.4735989570617676, 0.4732641052051538, 1759518756854976795, 
-0.055982768535614014, -0.6351755261421204, 0.5357198193618687, 1759518756892871411, 
-0.30215704441070557, 0.5224505066871643, 0.5319319614074621, 1759518756921765804, 
0.037469685077667236, 0.6080469489097595, 0.48763268963158657, 1759518756953121883, 
-0.40636932849884033, -0.7165175676345825, 0.4763551745469906, 1759518756985014139, 
0.29559892416000366, 0.1303938627243042, 0.569186975489799, 1759518757011738844, 
0.4429274797439575, 0.8637375235557556, 0.5047616748395647, 1759518757042570663, 
-0.06103724241256714, -0.428855299949646, 0.47650578909219155, 1759518757072575356, 
-0.32739484310150146, -0.41471177339553833, 0.47317904429832736, 1759518757102489579, 
-0.2957610487937927, 0.6981198191642761, 0.4947356181073903, 1759518757132468846, 
0.10700434446334839, -0.23774635791778564, 0.4913925238608149, 1759518757162499081, 
-0.5353473424911499, -0.2759878635406494, 0.4840442942231028, 1759518757193364208, 
0.4905712604522705, -0.015498101711273193, 0.46215880360064787, 1759518757225329129, 
-0.2568977475166321, 0.7568503618240356, 0.5414112348679542, 1759518757252398607, 
0.11923933029174805, -0.4102495312690735, 0.5453751050278662, 1759518757281222922, 
-0.8508079648017883, 0.04538959264755249, 0.5391570940726593, 1759518757312163806, 
0.7669308185577393, 0.42728161811828613, 0.5444318803122413, 1759518757342109438, 
-0.07490253448486328, -0.3997218608856201, 0.5077708536955178, 1759518757372043407, 
0.01697397232055664, -0.08499544858932495, 0.47353543424395106, 1759518757402528158, 
-0.18564903736114502, 0.23165273666381836, 0.4706092598459005, 1759518757465047031, 
-0.07790142297744751, -0.4410659074783325, 0.5450574844474658, 1759518757492418804, 
-0.21545803546905518, 0.19814252853393555, 0.4995663593188369, 1759518757522408165, 
-0.10708659887313843, 0.4593915343284607, 0.5140544868293894, 1759518757552419624, 
-0.0517115592956543, -0.47865766286849976, 0.5104813655814548, 1759518757582407691, 
0.5706501007080078, 0.04629319906234741, 0.5284733074575999, 1759518757610752370, 
-0.2561836242675781, 0.6680912375450134, 0.46065247297007367, 1759518757641687501, 
0.10950404405593872, -0.6697371006011963, 0.4690730945074021, 1759518757673177919, 
-0.9383278489112854, 0.23745691776275635, 0.4916080611457794, 1759518757704580942, 
0.21962898969650269, 0.6806100606918335, 0.5892973621604873, 1759518757731510028, 
-0.6554743051528931, -0.7979201078414917, 0.5280226312211733, 1759518757761459020, 
0.5856515169143677, 0.1867614984512329, 0.5068978694519736, 1759518757791489153, 
0.39282041788101196, 0.815558671951294, 0.5103198531461602, 1759518757821357331, 
-0.15586650371551514, -0.7800449132919312, 0.5056857044326462, 1759518757851327693, 
-0.09400039911270142, -0.12313973903656006, 0.5120106433827061, 1759518757880614136, 
-0.22384434938430786, 0.9074358940124512, 0.4751106287391944, 1759518757913200033, 
-0.08542817831039429, -0.27607637643814087, 0.4906483569747039, 1759518757943189770, 
0.09976738691329956, -0.8087121248245239, 0.49077828411972896, 1759518757981133003, 
0.03772163391113281, 0.03614324331283569, 0.5096651840738411, 1759518758011082436, 
-0.34632837772369385, 0.789841890335083, 0.5102070854796572, 1759518758041219114, 
0.3534064292907715, -0.30343520641326904, 0.47532003020286545, 1759518758072884828, 
-0.5943756699562073, 0.19466406106948853, 0.514012017287626, 1759518758101012801, 
0.8998189568519592, 0.10405778884887695, 0.4826246291403922, 1759518758130898523, 
-0.01978754997253418, -0.31623584032058716, 0.4990783247391683, 1759518758160822937, 
-0.45726144313812256, 0.11009567975997925, 0.49445787059459384, 1759518758190792249, 
0.06437653303146362, 0.37127256393432617, 0.5361834454860073, 1759518758219741450, 
0.16812026500701904, -0.08089470863342285, 0.4726317319989985, 1759518758251001095, 
0.37665855884552, -0.15624338388442993, 0.4903015280990775, 1759518758281352843, 
-0.13683491945266724, 0.23682302236557007, 0.4996930965305909, 1759518758312929513, 
-0.5130844712257385, 0.3090023994445801, 0.5688927718430756, 1759518758340693294, 
0.12092626094818115, -0.3401477336883545, 0.5256730709302132, 1759518758370456228, 
0.42507100105285645, 0.1493425965309143, 0.49146773317189973, 1759518758400465203, 
-0.3329833149909973, 0.4581816792488098, 0.4738827555283495, 1759518758430411562, 
-0.09806936979293823, -0.6263598203659058, 0.5170288701708119, 1759518758460385723, 
-0.760033905506134, 0.3641141653060913, 0.5244240870124425, 1759518758490302433, 
0.868546724319458, 0.6311310529708862, 0.47278784030122817, 1759518758521009190, 
-0.6810910105705261, -0.9206020832061768, 0.44583380487414287, 1759518758552936990, 
0.07237303256988525, 0.15778470039367676, 0.5277172765520052, 1759518758580282304, 
-0.122256338596344, 0.9426730275154114, 0.5410102164129816, 1759518758610104752, 
0.03993350267410278, -0.6511973142623901, 0.5449926793100894, 1759518758640128196, 
-0.40050172805786133, -0.8511367440223694, 0.5018471456015009, 1759518758670320322, 
0.16720032691955566, 0.27081847190856934, 0.5041302586292088, 1759518758700090734, 
-0.0027583837509155273, 0.6101483702659607, 0.48398621136153025, 1759518758729916660, 
0.05817955732345581, -0.7484637498855591, 0.4780991938486954, 1759518758760977265, 
-0.31549423933029175, 0.08896297216415405, 0.49943233072913207, 1759518758792854470, 
0.059832096099853516, 0.9549952745437622, 0.5538941854038172, 1759518758819796669, 
-0.02369147539138794, -0.5305070877075195, 0.5120806353831485, 1759518758848744124, 
0.35529977083206177, -0.12287157773971558, 0.4978021594918099, 1759518758879694851, 
0.5551232695579529, 0.8805109858512878, 0.4939558735341429, 1759518758909606789, 
-0.6595593094825745, -0.47310298681259155, 0.4924833452092976, 1759518758939642589, 
-0.2303096055984497, -0.12699317932128906, 0.5112342004095207, 1759518758969560012, 
-0.24450761079788208, 0.5634697079658508, 0.4694820798528998, 1759518759000998304, 
0.7622753977775574, -0.11751681566238403, 0.46742517492191, 1759518759032209630, 
-0.26768505573272705, -0.17235076427459717, 0.5457861956704824, 1759518759059515086, 
0.3661958575248718, 0.4585740566253662, 0.5184469776354312, 1759518759088300208, 
-0.12432873249053955, 0.08489221334457397, 0.49279763024486956, 1759518759119327159, 
0.2009773850440979, -0.21804064512252808, 0.5077432973361702, 1759518759149242332, 
-0.1637158989906311, 0.18605339527130127, 0.5126256245678389, 1759518759179205275, 
-0.35038769245147705, 0.5982241034507751, 0.5041804556402699, 1759518759209174236, 
0.1554749608039856, -0.28301429748535156, 0.4559632625428292, 1759518759241937875, 
-0.14293789863586426, 0.0627409815788269, 0.5170105231229193, 1759518759271062180, 
0.8478571772575378, 0.6023252606391907, 0.5436498724254843, 1759518759299097564, 
-0.6644873023033142, -0.6226252317428589, 0.5191717200477299, 1759518759328958081, 
-0.1884896159172058, -0.08449894189834595, 0.5058683161805466, 1759518759358973877, 
-0.024578213691711426, 0.9536023736000061, 0.5056270032784987, 1759518759388857063, 
0.4237373471260071, -0.6140632629394531, 0.5078888309746599, 1759518759418858929, 
-0.11150389909744263, -0.06960505247116089, 0.4897328561787411, 1759518759449029415, 
-0.19261431694030762, 0.8602924942970276, 0.4732843529557237, 1759518759481079256, 
-0.1664130687713623, -0.4836028218269348, 0.5593577449867758, 1759518759508775610, 
0.10827761888504028, 0.00801706314086914, 0.47972838165323545, 1759518759538665091, 
0.1838163137435913, 0.870682954788208, 0.49815486034431866, 1759518759568568723, 
-0.4608069062232971, -0.3654043674468994, 0.4984924083350838, 1759518759598592922, 
-0.22618454694747925, -0.5499227643013, 0.5220526680302559, 1759518759628461889, 
-0.27809107303619385, 1.173622965812683, 0.5193926981782452, 1759518759658483765, 
0.8245790004730225, 0.1472530961036682, 0.4568590248074732, 1759518759689948875, 
-0.5499919652938843, -0.7784796953201294, 0.46742289997533004, 1759518759721034503, 
-0.26912981271743774, 0.6176390647888184, 0.5539818967404309, 1759518759748311321, 
-0.5473730564117432, 0.2783397436141968, 0.5199271001945437, 1759518759778262414, 
0.46186763048171997, -0.4073646068572998, 0.5202758533228949, 1759518759808170188, 
0.07214975357055664, 0.391018807888031, 0.48034541246088247, 1759518759838167887, 
-0.18144667148590088, 0.23839807510375977, 0.471993506833983, 1759518759868110517, 
0.09255743026733398, -0.3737208843231201, 0.5294473286640276, 1759518759898072187, 
0.053868651390075684, 0.33569663763046265, 0.5050221144230757, 1759518759929054693, 
0.32417088747024536, 0.5761480927467346, 0.4618797945260842, 1759518759961319054, 
-0.21991246938705444, -0.38267219066619873, 0.5248028634534727, 1759518759987929911, 
0.04047977924346924, 0.005399823188781738, 0.4728150855239428, 1759518760018030939, 
-0.4992700219154358, 0.573965311050415, 0.5055776105508479, 1759518760047934957, 
0.3499845862388611, -0.2866874933242798, 0.5209721004226099, 1759518760078000482, 
-0.3723253011703491, -0.05624479055404663, 0.5325341466361306, 1759518760107946076, 
-0.20013421773910522, -0.1486775279045105, 0.5151666217737968, 1759518760138224362, 
0.025866329669952393, 0.724969208240509, 0.5085620441381979, 1759518760169090355, 
0.04913747310638428, -0.5095449090003967, 0.5007964964583304, 1759518760200330190, 
-0.30796968936920166, -0.04083651304244995, 0.5626334717366673, 1759518760227914355, 
0.3573436141014099, 0.8915937542915344, 0.5157382196511949, 1759518760256767512, 
-0.32051801681518555, -0.40540868043899536, 0.47623219299488695, 1759518760287708560, 
0.25634294748306274, -0.3561435341835022, 0.49846478923828286, 1759518760316734885, 
-0.13115352392196655, 0.9574772119522095, 0.47528347982407054, 1759518760347709936, 
-0.5079922080039978, -0.21735936403274536, 0.5007549993103643, 1759518760377817997, 
0.20796263217926025, -0.4451269507408142, 0.4826721039548581, 1759518760409019282, 
0.14778083562850952, 1.0542210340499878, 0.513451025163409, 1759518760439260743, 
0.589445173740387, -0.17435342073440552, 0.5352821692999717, 1759518760467689787, 
-0.6731621623039246, -0.6357771754264832, 0.514879954050273, 1759518760496733486, 
-0.08997905254364014, 0.841149628162384, 0.5090905757522426, 1759518760527613597, 
-0.3962526321411133, 0.2671939730644226, 0.49682971694323064, 1759518760557648590, 
0.3321712017059326, -0.6669099926948547, 0.4808760031602278, 1759518760587589808, 
-0.025798141956329346, 0.5043855309486389, 0.5183556677078925, 1759518760617224330, 
0.09558457136154175, 0.380717933177948, 0.48048925930151354, 1759518760649506545, 
-0.17553329467773438, -0.2878539562225342, 0.582838666712825, 1759518760676979860, 
0.31010276079177856, 0.1316125988960266, 0.5225398582072686, 1759518760706923812, 
-0.4496133327484131, 0.4004283547401428, 0.48673486627563234, 1759518760736848970, 
0.04296588897705078, -0.24481236934661865, 0.4896923493623865, 1759518760766664489, 
-0.10356384515762329, 0.0036954283714294434, 0.4803070714694228, 1759518760796674299, 
0.034041643142700195, 0.7678898572921753, 0.47388050669676934, 1759518760826656046, 
0.43507224321365356, -0.0877223014831543, 0.485160938673151, 1759518760857205692, 
-0.6787686944007874, -0.20240747928619385, 0.45895849848577874, 1759518760889108073, 
-0.3861262798309326, 0.568075954914093, 0.5355347160448811, 1759518760916543607, 
-0.4199134111404419, -0.1635960340499878, 0.5193049017680276, 1759518760946383453, 
0.6811139583587646, -0.20068955421447754, 0.5244215913132667, 1759518760976357113, 
0.14194262027740479, 0.6820350289344788, 0.5237685941254391, 1759518761006309489, 
0.08227479457855225, 0.03164452314376831, 0.5054653369908699, 1759518761036296534, 
-0.09831482172012329, -0.6026551127433777, 0.515076462100744, 1759518761066271822, 
0.45302170515060425, 0.6599605679512024, 0.5066949041472205, 1759518761097639953, 
-0.2943737506866455, 0.6802417635917664, 0.46694763676814666, 1759518761129100837, 
-0.24689644575119019, -0.8607997894287109, 0.5410450181702681, 1759518761156136474, 
0.19396483898162842, 0.19593143463134766, 0.503070584397873, 1759518761186012213, 
-0.10397112369537354, 0.7448638677597046, 0.5133000096907954, 1759518761216194198, 
0.41188639402389526, -0.6651727557182312, 0.5273093637307349, 1759518761245928562, 
-0.6112461686134338, 0.4575384259223938, 0.4881598750926179, 1759518761275910090, 
-0.11694258451461792, 0.5158783793449402, 0.5000283228242062, 1759518761305851130, 
-0.1227421760559082, -0.8227577209472656, 0.4714953244037748, 1759518761337387469, 
0.31268709897994995, 0.33612459897994995, 0.4583132954942488, 1759518761368948921, 
0.2745389938354492, 0.8918745517730713, 0.5782465575524552, 1759518761394739066, 
0.29226619005203247, 0.5707236528396606, 0.45738974150266926, 1759518761435651897, 
-0.3014904856681824, -0.8223780393600464, 0.49740507874434725, 1759518761465614590, 
0.35714471340179443, 0.4847460389137268, 0.4950502275675841, 1759518761497219079, 
-0.5468326807022095, 0.6287935376167297, 0.5169935936209304, 1759518761528324817, 
-0.04118579626083374, -0.5930571556091309, 0.5860239005862549, 1759518761555522672, 
0.18824023008346558, 0.24916434288024902, 0.5007143339452331, 1759518761584439239, 
-0.04194706678390503, 0.39042866230010986, 0.49343086498034455, 1759518761614438360, 
-0.1635369062423706, 0.11546468734741211, 0.5027201167384047, 1759518761645370065, 
0.27678990364074707, -0.19567376375198364, 0.5024789176987375, 1759518761675188471, 
0.45908379554748535, 0.19706225395202637, 0.509641210409401, 1759518761704740523, 
-0.35810738801956177, 0.21405988931655884, 0.4414769499183294, 1759518761737610410, 
-0.15799927711486816, -0.13397514820098877, 0.5258363686499021, 1759518761765162756, 
-0.2911132574081421, 0.14449620246887207, 0.5080797717080586, 1759518761795058686, 
0.32738351821899414, 0.5669158101081848, 0.4988199511755046, 1759518761824998262, 
-0.4078572988510132, -0.1261279582977295, 0.48642194897392627, 1759518761854922506, 
0.3482664227485657, -0.4295949339866638, 0.48331572940972994, 1759518761884908427, 
-0.49645674228668213, 0.8890227675437927, 0.4987856747103055, 1759518761914862761, 
0.12848562002182007, -0.30481964349746704, 0.4892868148380189, 1759518761945450752, 
-0.4319119453430176, -0.35693979263305664, 0.4876311632476898, 1759518761977439468, 
0.22971612215042114, 1.1020557880401611, 0.5834543142549251, 1759518762004828274, 
-0.30691850185394287, -0.24081796407699585, 0.5495206155655482, 1759518762034634078, 
-0.10443902015686035, -0.5799863934516907, 0.5106322289511683, 1759518762064622534, 
0.45361649990081787, 1.0348633527755737, 0.5127649465521451, 1759518762094576326, 
-0.08748704195022583, -0.12819111347198486, 0.5516314722134217, 1759518762123478918, 
-0.4498932957649231, -0.563980758190155, 0.4848029332543439, 1759518762153473757, 
-0.24882662296295166, 0.8292907476425171, 0.44684352853795395, 1759518762186253312, 
0.3427678346633911, 0.16324716806411743, 0.48087144657237113, 1759518762217255926, 
-0.41706591844558716, -0.665715217590332, 0.5376729906607859, 1759518762244412862, 
0.4871430993080139, 0.4335152506828308, 0.5091630076186434, 1759518762274271874, 
-0.4165910482406616, -0.26990967988967896, 0.40527623133406465, 1759518762297367087, 
0.17138922214508057, -0.7591589689254761, 0.5145475419085404, 1759518762334212404, 
0.2628291845321655, 0.15892815589904785, 0.49440619744165953, 1759518762364130891, 
0.2768033742904663, 0.7687427997589111, 0.4977832600216173, 1759518762394092499, 
-0.09932464361190796, -0.2724372148513794, 0.4963304866646801, 1759518762425332142, 
-0.10010933876037598, 0.0926705002784729, 0.4889798586177514, 1759518762457411241, 
0.233342707157135, 0.4762333631515503, 0.5494993243759045, 1759518762483950379, 
0.01256096363067627, -0.2748367190361023, 0.490327069668307, 1759518762513932672, 
-0.2949031591415405, -0.19671136140823364, 0.5318962878766558, 1759518762543868453, 
0.06042015552520752, 0.8263156414031982, 0.5298733776228557, 1759518762573776307, 
0.32020699977874756, 0.04698139429092407, 0.49023144229224747, 1759518762603785268, 
-0.3418220281600952, -0.23019850254058838, 0.4986367103987926, 1759518762633705094, 
0.6787369847297668, 0.23597484827041626, 0.49981887981896556, 1759518762665433627, 
-0.7960442304611206, 0.4235624074935913, 0.4844992132906085, 1759518762695799198, 
0.4401746392250061, -0.45156461000442505, 0.5027014245212896, 1759518762723613104, 
