acc_x, acc_y, angular_z, stamp, 
0.0010488629341125488, 0.0032018423080444336, -6.763026920855408e-10, 1759518721039955245, 
-0.0060822367668151855, -0.0166398286819458, -3.3038331631419114e-10, 1759518721063890718, 
-0.007572472095489502, 0.012065649032592773, -7.411552026791796e-10, 1759518721099834224, 
-0.002027451992034912, -0.0203474760055542, -3.7338618126012744e-10, 1759518721129992409, 
-0.03222489356994629, 0.020914554595947266, -2.5714279975121687e-10, 1759518721159779710, 
0.02183842658996582, -0.004338324069976807, -1.355100621010248e-10, 1759518721191285777, 
-0.012193143367767334, 0.0009266138076782227, -1.0665392545614104e-10, 1759518721222389566, 
-0.006965219974517822, 0.006327390670776367, -1.3226352467472772e-10, 1759518721249607637, 
-0.00885230302810669, -0.022464215755462646, -1.6307755860679984e-10, 1759518721279550348, 
-0.018001794815063477, -0.0008886456489562988, -1.9879457669686985e-06, 1759518721309536384, 
-0.03767955303192139, 0.0008332729339599609, -1.951715686972895e-10, 1759518721339472998, 
-0.017741501331329346, -0.013551950454711914, -1.368316670047875e-10, 1759518721369408502, 
-0.0014967918395996094, 0.004547774791717529, -6.24837137925536e-11, 1759518721399923953, 
0.02549225091934204, 0.004697024822235107, -4.251592048710707e-11, 1759518721431047787, 
-0.0034424662590026855, -0.007849335670471191, -1.9531321833030467e-06, 1759518721461566337, 
-0.010354042053222656, 0.017341792583465576, -4.948437822479987e-11, 1759518721489644290, 
0.004152119159698486, -0.013212800025939941, 1.14602586146828e-11, 1759518721518757976, 
0.022220909595489502, 0.0011019706726074219, 4.5381664860023864e-11, 1759518721549145519, 
0.012889683246612549, -0.0007174015045166016, -9.015375407769157e-12, 1759518721579074278, 
-0.006955444812774658, -0.006151556968688965, -5.334005883297578e-11, 1759518721609094305, 
0.007463693618774414, 0.0045545101165771484, 1.9660698655062745e-06, 1759518721639410196, 
0.05039268732070923, 0.008020460605621338, -5.947643300195013e-11, 1759518721671235046, 
0.02307206392288208, 0.004146933555603027, -1.9388468098722535e-10, 1759518721699328133, 
-0.022215962409973145, -0.024577319622039795, -3.1865208737805706e-10, 1759518721728836536, 
-0.04008299112319946, 0.006100118160247803, -2.8606143867430467e-10, 1759518721758787824, 
0.019306600093841553, 0.01693040132522583, -2.0222383539758819e-10, 1759518721788846112, 
0.0549960732460022, -0.004627645015716553, -1.9977330264598746e-06, 1759518721818685465, 
-0.015583395957946777, -0.042297959327697754, -3.2514047721044293e-10, 1759518721848699509, 
-0.022848427295684814, -0.020400404930114746, -2.376045507542237e-10, 1759518721879035341, 
0.007746636867523193, 0.0050629377365112305, -1.0580127252956495e-10, 1759518721910961981, 
0.02900075912475586, -0.014566600322723389, -6.104552739564071e-11, 1759518721938848411, 
0.00707477331161499, -0.034263551235198975, -1.4049013822950475e-11, 1759518721968492965, 
-0.04160499572753906, -0.014163017272949219, -1.9922552601148783e-06, 1759518721998409526, 
-0.019695281982421875, 0.013161778450012207, -1.987652444833102e-06, 1759518722028393027, 
0.021822333335876465, 0.015088319778442383, -1.9891240880825314e-06, 1759518722058353968, 
0.023473381996154785, -0.009994089603424072, -1.9909113353281948e-06, 1759518722088288584, 
-0.05370926856994629, -0.009822368621826172, -1.9209713223165356e-06, 1759518722119312055, 
-0.024570345878601074, -0.013167083263397217, -1.856652551557259e-06, 1759518722151410701, 
0.020847082138061523, 0.003197193145751953, 2.2570907610642348e-10, 1759518722188120539, 
0.011743366718292236, -0.005732893943786621, 1.4493870563012945e-10, 1759518722218154117, 
-0.024279534816741943, -0.011013150215148926, 1.6264645074418062e-10, 1759518722248132126, 
-0.02036494016647339, 0.01791328191757202, 1.0912071126565177e-10, 1759518722279939376, 
0.010545551776885986, 0.010818243026733398, -1.9212027398801543e-06, 1759518722310964593, 
0.03383743762969971, -0.001725614070892334, -7.736265723190781e-11, 1759518722338115637, 
-0.027320802211761475, -0.010576307773590088, -1.3352224597087013e-11, 1759518722367840760, 
-0.028819918632507324, -0.0031301379203796387, -8.915739196708091e-11, 1759518722398048326, 
0.029098153114318848, -0.0028952956199645996, -2.8974066232275337e-10, 1759518722426745298, 
0.03794550895690918, 0.011608421802520752, -3.049148956561719e-10, 1759518722457687390, 
0.0017281174659729004, -0.01529991626739502, -1.7706422015930817e-10, 1759518722487693472, 
-0.03244858980178833, -0.002607882022857666, -8.141281893983455e-11, 1759518722518997677, 
0.012732863426208496, -0.020547807216644287, -1.6467078682807274e-10, 1759518722549954566, 
0.026961326599121094, 0.018809735774993896, -1.8329439728196906e-10, 1759518722577643797, 
0.015744149684906006, 0.014883041381835938, -1.2675405131170192e-11, 1759518722607486451, 
-0.03849059343338013, -0.006935596466064453, 1.1029267670007132e-10, 1759518722637402741, 
-0.0024060606956481934, 0.005368709564208984, 9.37284032280167e-11, 1759518722667396948, 
0.04435122013092041, 0.003215968608856201, 2.4062110114189235e-11, 1759518722697312685, 
0.04220128059387207, 0.018962383270263672, 6.316225104854333e-12, 1759518722726749759, 
0.0021014809608459473, 0.0007330179214477539, -5.5732942914462685e-11, 1759518722759286234, 
-0.028562068939208984, -0.012026786804199219, -1.5783859838346467e-10, 1759518722789189606, 
0.028967082500457764, 0.016606390476226807, -1.5708449987564858e-06, 1759518722827139132, 
0.02689051628112793, 0.0021386146545410156, -1.7931113545679888e-10, 1759518722857075296, 
-0.03287303447723389, -0.019481778144836426, -2.897656728204721e-10, 1759518722887199087, 
-0.032711565494537354, -0.024822890758514404, -2.4184228864849165e-10, 1759518722919648456, 
0.0179135799407959, -0.008477449417114258, -1.8304491154008666e-10, 1759518722947050978, 
0.026964187622070312, 0.011440932750701904, -8.224454000827857e-11, 1759518722976930415, 
0.0033959150314331055, 0.002613067626953125, -1.988270569729777e-06, 1759518723006909394, 
-0.05939173698425293, -0.00620657205581665, -1.1088857009470856e-11, 1759518723036858262, 
-0.024852991104125977, -0.007892847061157227, 2.5170045782317036e-11, 1759518723066713052, 
0.013164937496185303, 0.0011628270149230957, 3.05504465384841e-11, 1759518723096966897, 
0.02198946475982666, 0.002850651741027832, 2.4371986965840422e-11, 1759518723127044346, 
-0.0213925838470459, -0.0133170485496521, 1.900586072177934e-11, 1759518723159026893, 
-0.03557419776916504, 0.037001192569732666, 3.4491267194140605e-11, 1759518723186588192, 
0.015003800392150879, 0.009941697120666504, 7.058191110580475e-12, 1759518723216533612, 
0.02418917417526245, 0.0043975114822387695, -1.6703786426682534e-12, 1759518723246432302, 
0.05526047945022583, 0.00093841552734375, -6.762061663376568e-05, 1759518723276407243, 
-0.45277106761932373, 0.5525309443473816, 0.0838595585704717, 1759518723306327929, 
-0.0839700698852539, 0.36347270011901855, 0.5114670100695993, 1759518723336260333, 
-0.495036244392395, 1.0143553018569946, 0.7761131007172867, 1759518723367530538, 
-0.3429158329963684, 0.0007049441337585449, 0.9666356774378831, 1759518723399579593, 
-0.3609733581542969, -0.08851563930511475, 1.4639323609075634, 1759518723426151100, 
0.08715999126434326, 0.3931314945220947, 1.5376153977707754, 1759518723456152942, 
-0.3746260404586792, 0.6033973693847656, 1.72956122175835, 1759518723486034834, 
-1.0054054260253906, -0.04025387763977051, 1.9136943661655001, 1759518723516016474, 
-0.09852713346481323, 0.13581162691116333, 2.075000470010577, 1759518723546003485, 
-0.08715522289276123, 0.21080243587493896, 2.119649883553495, 1759518723575981257, 
-0.3945608139038086, -1.1696919202804565, 1.9785620715560335, 1759518723607074036, 
0.28337913751602173, -0.08975917100906372, 1.862776575506843, 1759518723639089821, 
0.18066883087158203, 0.8394737243652344, 2.172608610350417, 1759518723666015235, 
-1.5630743503570557, -1.5303044319152832, 1.8740974021925991, 1759518723695968809, 
-0.43466198444366455, 0.8530290722846985, 1.6145430549026127, 1759518723719339065, 
-0.30519551038742065, 0.7272078990936279, 2.06353267647441, 1759518723746349384, 
0.48088860511779785, -1.0674424171447754, 1.917577746278618, 1759518723776076141, 
0.1819005012512207, 0.22269201278686523, 1.9744373071945125, 1759518723805918326, 
0.1502966284751892, 0.8555232286453247, 1.9061086763070336, 1759518723835867538, 
-0.1450853943824768, -1.236220359802246, 1.8889441745605207, 1759518723865797247, 
-0.014339804649353027, 0.20271772146224976, 1.9306968378256786, 1759518723895787909, 
-0.3770754337310791, 0.6807413101196289, 1.8351953139018766, 1759518723927267208, 
0.09362930059432983, -0.8180534839630127, 1.9070460424525975, 1759518723957432433, 
-0.16084671020507812, -0.1442650556564331, 2.147993100449303, 1759518723984764419, 
-0.2998591661453247, 0.6751496195793152, 1.8322450423548933, 1759518724015705297, 
0.41581928730010986, -0.9064627289772034, 1.7357952186624785, 1759518724037217223, 
-0.9173258543014526, 0.18994462490081787, 1.9848725737516928, 1759518724065724432, 
0.459963321685791, 0.5418699979782104, 1.9614066423489287, 1759518724095667226, 
0.04660689830780029, -0.20640838146209717, 1.9579977660203725, 1759518724125655322, 
0.03922051191329956, -0.5446450114250183, 1.8962513912242882, 1759518724155640833, 
0.03185391426086426, 0.12949705123901367, 1.90706298078978, 1759518724185626984, 
0.2396584153175354, 0.6884616613388062, 1.946137116045156, 1759518724215156922, 
-0.5011188983917236, -0.5161227583885193, 1.7891271879750454, 1759518724247094014, 
-0.07389986515045166, -0.6085668802261353, 2.0514334108288312, 1759518724274823569, 
-0.23195570707321167, 0.4028196930885315, 1.9265660029708023, 1759518724304787511, 
0.32445061206817627, 0.47670936584472656, 1.9149268040268748, 1759518724334679383, 
0.0875784158706665, 0.3247654438018799, 1.899396338956186, 1759518724364681545, 
-0.3549818992614746, -0.7002937197685242, 1.9500832096884093, 1759518724394656844, 
-0.2338528037071228, -0.13442587852478027, 1.9531415641330676, 1759518724424589276, 
-0.4068450331687927, 0.3920060396194458, 1.8413490958071703, 1759518724456010401, 
-0.37780940532684326, 0.18428707122802734, 1.8375822187617312, 1759518724487185473, 
-0.6076732277870178, -0.22026312351226807, 2.147314516553224, 1759518724513488905, 
-0.2616688013076782, -0.21768927574157715, 1.8278693104195076, 1759518724544511603, 
0.8052324652671814, -0.1749820113182068, 1.8833249946337687, 1759518724574583279, 
0.2873848080635071, 0.2951173782348633, 1.9501125883355137, 1759518724604493568, 
-0.4408878684043884, 0.4828674793243408, 1.9238863737202831, 1759518724634229720, 
-0.26062315702438354, -0.2594870328903198, 1.8733830940293075, 1759518724664166977, 
-0.19507277011871338, -0.1459108591079712, 1.7754740361330672, 1759518724695978614, 
0.4940629005432129, -0.08337068557739258, 1.8862886116268482, 1759518724726738010, 
0.06013065576553345, 0.08068245649337769, 2.0865837784273036, 1759518724754196166, 
-0.14956867694854736, 0.28861337900161743, 1.9126471564476146, 1759518724783989581, 
0.24226582050323486, -0.09109395742416382, 1.6476155656804505, 1759518724807274908, 
0.0029366016387939453, 0.09610587358474731, 2.1050358109702096, 1759518724843891135, 
0.2978172302246094, 0.03558403253555298, 1.9156775475141756, 1759518724873911627, 
0.42073357105255127, -0.3271467685699463, 1.9416537516073715, 1759518724903853924, 
-0.8621535301208496, -0.41568297147750854, 1.8461556906610925, 1759518724935489771, 
0.003967881202697754, -0.3018624782562256, 1.790670657755291, 1759518724967460829, 
-0.19725561141967773, 0.44095832109451294, 2.0787657144130574, 1759518724994366492, 
0.6206474900245667, 0.38358837366104126, 1.9606407467205058, 1759518725023599512, 
-0.13794219493865967, 0.12095767259597778, 1.992419605345985, 1759518725083824697, 
-0.006141960620880127, -0.34251004457473755, 2.0067174004179873, 1759518725112600376, 
-0.35215407609939575, -0.2787935733795166, 1.8515562181171816, 1759518725143604733, 
-0.2778264284133911, -0.041785597801208496, 1.8273438717455601, 1759518725175535700, 
0.008767306804656982, -0.24615830183029175, 2.1578713960192935, 1759518725243470166, 
-0.39332181215286255, 0.11838006973266602, 1.859821782215642, 1759518725273545039, 
0.10407274961471558, 0.2985492944717407, 1.835512595799202, 1759518725303547211, 
-0.6394713521003723, 0.017252564430236816, 1.7365944851465265, 1759518725335596582, 
-0.10719364881515503, -0.2828219532966614, 2.075889224912656, 1759518725363091971, 
0.07157093286514282, -0.0186234712600708, 1.918805410630939, 1759518725392984998, 
-0.757080078125, 0.24348020553588867, 1.892424095182413, 1759518725422976085, 
-0.3337172269821167, -0.1401442289352417, 1.915236075178878, 1759518725452899188, 
0.5141086578369141, 0.00821232795715332, 1.9477777521548658, 1759518725482845878, 
0.005134761333465576, 0.5266246199607849, 1.959859323329773, 1759518725512788419, 
0.4048045873641968, 0.1526501178741455, 1.836750938965166, 1759518725543776241, 
-0.17362195253372192, 0.07481861114501953, 1.7944694129779972, 1759518725575456467, 
-0.26584309339523315, 0.31991201639175415, 2.2241761707307663, 1759518725601766115, 
-0.48607099056243896, 0.10095101594924927, 1.8803199680474247, 1759518725632632174, 
0.3069379925727844, 0.21332794427871704, 1.896576873507334, 1759518725662556109, 
-0.047537803649902344, 0.42778468132019043, 1.8995191116604708, 1759518725692521874, 
-0.280367910861969, 0.25078678131103516, 1.9583245478120301, 1759518725721499173, 
0.06956452131271362, 0.19189578294754028, 1.8231551414267229, 1759518725752426576, 
-0.46468913555145264, 0.18454986810684204, 1.8496546161793075, 1759518725783608758, 
0.4229393005371094, 0.637559711933136, 1.8422699920615182, 1759518725815202907, 
-0.025680720806121826, 0.05320197343826294, 2.104380119080202, 1759518725842348177, 
-0.1571008563041687, 0.03904968500137329, 1.8914996843034402, 1759518725872214887, 
-0.7319946885108948, 0.28275632858276367, 1.9153690200493791, 1759518725902209963, 
0.09708607196807861, -0.25463998317718506, 1.9086917758332862, 1759518725932098931, 
-0.5634135603904724, 0.4289318919181824, 1.9074605840680199, 1759518725962108029, 
0.07475078105926514, 0.1019851565361023, 1.9460163838302327, 1759518725992042485, 
0.2825998067855835, 0.16525250673294067, 1.8459469283925651, 1759518726023322641, 
-0.036471784114837646, 0.3089231848716736, 1.731160700840872, 1759518726056208067, 
0.22248178720474243, -0.15607309341430664, 2.1786918390519365, 1759518726081959151, 
-0.23887336254119873, 0.26971691846847534, 1.8673952201056876, 1759518726111813182, 
-0.1648067831993103, 0.2026112675666809, 1.6142641178876398, 1759518726134852465, 
-0.3144384026527405, 0.18880021572113037, 2.101053832381401, 1759518726170762393, 
-0.17695105075836182, 0.5770484209060669, 1.8411891642662488, 1759518726201723942, 
-0.14836043119430542, 0.44658946990966797, 1.940641492910165, 1759518726231694782, 
-1.0905041694641113, -0.013012051582336426, 1.8409478366787304, 1759518726263367363, 
0.8582949042320251, -0.10857546329498291, 1.9641863864856937, 1759518726293051849, 
-0.5063932538032532, 0.3534690737724304, 2.0252595754121234, 1759518726331522242, 
-0.11618703603744507, 0.5093169808387756, 1.958782928503388, 1759518726361453843, 
-0.06836044788360596, 0.45930570363998413, 1.9568155776967784, 1759518726391433274, 
-0.028932154178619385, 0.7272322773933411, 1.8086100877616726, 1759518726423686971, 
-0.8025476336479187, 0.19737142324447632, 1.9633714994568687, 1759518726453421638, 
0.17926925420761108, -0.001997530460357666, 2.045697710089028, 1759518726491255100, 
-0.19262361526489258, 0.5273556709289551, 1.8922157943421718, 1759518726521253237, 
0.5423742532730103, 0.9775194525718689, 1.8337316247057591, 1759518726551467057, 
-0.18249619007110596, 0.026890814304351807, 1.7136561723036674, 1759518726583402333, 
-0.6512703895568848, 0.15120667219161987, 1.9483053296081514, 1759518726611195980, 
-0.07793182134628296, 0.6541971564292908, 1.8308191629709236, 1759518726641106120, 
-0.8528701066970825, 0.5458575487136841, 1.8628416158392729, 1759518726671036757, 
0.2219204306602478, 0.33736759424209595, 1.9427423801384276, 1759518726701037729, 
-0.09530597925186157, 0.15953576564788818, 1.9539239238074515, 1759518726730894895, 
-0.3208683729171753, 0.1267637014389038, 1.8920307192652985, 1759518726760882298, 
0.3478819727897644, 0.4849821925163269, 1.8867333575172516, 1759518726791216443, 
-0.8281554579734802, 0.5735689401626587, 1.7207911960680877, 1759518726824989782, 
-0.17147564888000488, 0.29663610458374023, 2.24880903815057, 1759518726851007686, 
0.18170368671417236, 0.44128191471099854, 1.9268724662465577, 1759518726881116284, 
-0.250948965549469, -0.2741050124168396, 1.9299269695786812, 1759518726910889313, 
-0.07652294635772705, -0.0951339602470398, 1.9351035251355975, 1759518726940951604, 
0.2723800539970398, 0.7514334917068481, 1.9850675150582935, 1759518726970864328, 
-1.289914608001709, 0.24873387813568115, 1.90421547065825, 1759518727000954888, 
-0.3534137010574341, 0.07415205240249634, 1.8974724773999303, 1759518727031262872, 
-0.575205385684967, 0.5055660009384155, 1.8115826759226519, 1759518727063414123, 
-0.45969098806381226, 0.25797849893569946, 2.082218929281583, 1759518727090838367, 
0.2767542004585266, 0.18825721740722656, 1.8614179182321926, 1759518727120876404, 
-0.4879230856895447, 0.2440735101699829, 1.8130252424834015, 1759518727150827021, 
-0.1111099123954773, 0.003869473934173584, 1.802744309264277, 1759518727180876943, 
0.27068984508514404, 0.46773678064346313, 1.8619519428584248, 1759518727210777873, 
-0.5242944955825806, 0.5740203261375427, 1.9054469807863827, 1759518727240100528, 
0.650318443775177, 0.2974572777748108, 1.7512290374785777, 1759518727271691487, 
-0.49461060762405396, 0.2482115626335144, 1.760296559606019, 1759518727303257051, 
-0.18089908361434937, 0.023685991764068604, 2.0309721553872127, 1759518727329986014, 
-0.468960165977478, 0.1333162784576416, 1.8009709802901992, 1759518727359859228, 
-0.30866754055023193, 0.33060961961746216, 1.8082510127687843, 1759518727389833104, 
0.2676693797111511, 0.5676953792572021, 1.809276278392605, 1759518727419799116, 
-0.4312601685523987, 0.39227908849716187, 1.8740287490572378, 1759518727448745253, 
0.5807744860649109, -0.12554478645324707, 1.7228614937108333, 1759518727480130536, 
0.04090315103530884, 0.6685260534286499, 1.72241198948661, 1759518727511311706, 
-0.35864734649658203, 0.25702881813049316, 1.7555268642895239, 1759518727541649416, 
-0.4804988503456116, 0.15642273426055908, 1.8687580508667394, 1759518727569508186, 
-0.16966068744659424, 0.4460449814796448, 1.7374381949713276, 1759518727599542251, 
-0.23680365085601807, 0.4766658544540405, 1.766652441149987, 1759518727629478513, 
-0.10157221555709839, 0.20254969596862793, 1.7773748957250817, 1759518727659411658, 
-0.08402359485626221, 0.6369875073432922, 1.7824721685166196, 1759518727689431563, 
-0.39831215143203735, 0.1991337537765503, 1.7580638367003263, 1759518727718729314, 
0.6152850985527039, -0.2166772484779358, 1.5617534878944586, 1759518727751299282, 
-0.4716840982437134, 0.382027268409729, 1.812685213539707, 1759518727779261514, 
-0.30259233713150024, 0.7240204215049744, 1.708112112925886, 1759518727809124711, 
-0.3773801326751709, 0.19323235750198364, 1.7562840858879043, 1759518727839147270, 
-0.4407169222831726, 0.45775163173675537, 1.7546347365395143, 1759518727869065417, 
0.3733874559402466, -0.0005183815956115723, 1.6989574129210585, 1759518727899017015, 
-0.22519516944885254, 0.07980185747146606, 1.6572491975818608, 1759518727928982651, 
-0.28731703758239746, 1.0791041851043701, 1.6140776553675404, 1759518727959325624, 
-0.2248610258102417, 0.4222460389137268, 1.556426577675365, 1759518727991629280, 
-0.6013078093528748, -0.2941009998321533, 1.888930037708313, 1759518728018990190, 
0.25699418783187866, 0.3942030072212219, 1.7355005659994946, 1759518728048843401, 
0.06920832395553589, 0.319704532623291, 1.7663902514928795, 1759518728077767057, 
0.09616595506668091, 0.4870525598526001, 1.6048781243180963, 1759518728108850257, 
-0.2471807599067688, 0.21040022373199463, 1.6776690012407074, 1759518728138783461, 
-0.39642012119293213, 0.5985123515129089, 1.700843166464401, 1759518728168569739, 
0.5520173907279968, 0.17468798160552979, 1.5932616648533484, 1759518728199309085, 
-0.28520768880844116, 0.031360626220703125, 1.5037660293112762, 1759518728230731038, 
0.14704304933547974, 0.014250040054321289, 1.711943644046421, 1759518728258478797, 
0.2985694408416748, 0.5730146169662476, 1.6226044881299886, 1759518728288388711, 
0.37021875381469727, 0.6342475414276123, 1.65342301348894, 1759518728318369193, 
-0.1689385175704956, 0.47154152393341064, 1.6362813290282654, 1759518728348256038, 
0.08090639114379883, -0.20364707708358765, 1.5674516158189822, 1759518728378536377, 
-0.29203712940216064, -0.03775215148925781, 1.591436174031896, 1759518728408190966, 
-0.03347271680831909, 1.230669617652893, 1.4872629508101693, 1759518728439660171, 
-0.3269347548484802, 0.31104612350463867, 1.466754827397443, 1759518728471406819, 
-0.5777984857559204, -0.04903680086135864, 1.7645741796026144, 1759518728498215292, 
1.0669581890106201, 0.5031729340553284, 1.6060046405192752, 1759518728527981201, 
0.2809857726097107, 0.48143941164016724, 1.5841753246814338, 1759518728558027137, 
0.0039825439453125, 0.3346490263938904, 1.6087430674227872, 1759518728587873701, 
0.2781507968902588, 0.13514012098312378, 1.5923416865962396, 1759518728617890005, 
-0.4735502600669861, 0.04171997308731079, 1.5804229197833934, 1759518728647844174, 
-0.094668447971344, 0.46291810274124146, 1.4488078006921188, 1759518728680043247, 
0.03206413984298706, 0.6066347360610962, 1.4970901420900171, 1759518728710467456, 
-0.25800442695617676, 0.2749027609825134, 1.6513275716192928, 1759518728737698341, 
0.4491505026817322, 0.2723172903060913, 1.516000198413589, 1759518728767594755, 
0.33738088607788086, 0.283202588558197, 1.5434651201005023, 1759518728797573967, 
-0.18623852729797363, 0.2377341389656067, 1.543605339484153, 1759518728827560073, 
0.2857779264450073, 0.5401727557182312, 1.5633505244570192, 1759518728857529271, 
-0.3778555989265442, 0.4388004541397095, 1.5721116832646946, 1759518728887698204, 
0.1694357991218567, 0.11290711164474487, 1.4731850873620715, 1759518728919365950, 
0.050876498222351074, -0.08057457208633423, 1.4636960057458297, 1759518728949497525, 
-0.18169504404067993, 0.6938958168029785, 1.5776208397526195, 1759518728977299923, 
0.04891699552536011, 0.45332664251327515, 1.497257151917359, 1759518729007249952, 
-0.008535265922546387, 0.2296363115310669, 1.4888429061839228, 1759518729037187727, 
-0.20803993940353394, 0.22033458948135376, 1.4715566625068937, 1759518729067134518, 
0.6277103424072266, 0.18456107378005981, 1.4934878716504123, 1759518729097247505, 
-0.18960726261138916, 0.4350798726081848, 1.4397201983964447, 1759518729127798038, 
-0.28463560342788696, 0.6933073997497559, 1.3803590662469716, 1759518729159372194, 
0.05686497688293457, 0.06859380006790161, 1.613716364926921, 1759518729187024764, 
-0.1775379776954651, 0.04782372713088989, 1.4828854962490203, 1759518729216961770, 
0.15416193008422852, 0.5610888600349426, 1.4557025714067766, 1759518729246985640, 
0.1330140233039856, 0.7755502462387085, 1.4530991131463193, 1759518729276945978, 
-0.27131134271621704, -0.2276342511177063, 1.4894559853668867, 1759518729305822403, 
0.13478130102157593, 0.15777862071990967, 1.4220744486111099, 1759518729335798318, 
-0.10193812847137451, 0.5978912711143494, 1.4183411095573117, 1759518729366423527, 
0.3564814329147339, 0.1772260069847107, 1.3208411977543255, 1759518729399408243, 
-0.312821626663208, 0.9893131256103516, 1.5745972081233364, 1759518729426640161, 
-0.09990060329437256, 0.3296794891357422, 1.4351468879201579, 1759518729456578319, 
0.41971707344055176, -0.20172452926635742, 1.4359159663564078, 1759518729486506282, 
-0.18959426879882812, 0.6956819891929626, 1.4048380207177995, 1759518729516518061, 
-0.34461092948913574, 0.2867237329483032, 1.418266655723302, 1759518729546512404, 
0.48714274168014526, 0.6306701302528381, 1.4402399779166943, 1759518729575784815, 
-0.43486344814300537, 0.22283142805099487, 1.3151315731296784, 1759518729607367686, 
0.5753649473190308, 0.6296153664588928, 1.322922879583791, 1759518729639807814, 
-0.6803208589553833, 0.32623428106307983, 1.5640864709257951, 1759518729666663912, 
-0.4167857766151428, -0.3673575520515442, 1.3909534632011793, 1759518729696355694, 
-0.08045202493667603, 0.32108044624328613, 1.4038314546805162, 1759518729726312593, 
-0.5919333696365356, 0.7449813485145569, 1.3919099673743844, 1759518729756289909, 
0.23161816596984863, 0.1163061261177063, 1.3915849268631446, 1759518729786410337, 
-0.03332716226577759, 0.3879614472389221, 1.3826994603695149, 1759518729816494979, 
-0.20404589176177979, 0.037167489528656006, 1.2866622012687672, 1759518729847704254, 
0.29659461975097656, 0.07345181703567505, 1.3350930528348697, 1759518729878497997, 
-0.2544494867324829, 1.207269310951233, 1.4840349228464047, 1759518729906092556, 
0.0724107027053833, 0.22825700044631958, 1.3554392327937161, 1759518729936117469, 
-0.08757597208023071, -0.056408047676086426, 1.3806971964639883, 1759518729966099930, 
0.008345544338226318, 0.5406827330589294, 1.3652069581703417, 1759518729996095205, 
0.11758607625961304, 0.2709001302719116, 1.3768426104783165, 1759518730026061930, 
-0.46717530488967896, 0.2762487530708313, 1.3526139300471416, 1759518730056103699, 
-0.03311270475387573, 0.19152545928955078, 1.2690423656258616, 1759518730087837595, 
0.13921475410461426, 0.23369640111923218, 1.3223958283339916, 1759518730117852126, 
0.29856449365615845, 0.4332684278488159, 1.3988768713664959, 1759518730146106285, 
0.5684362649917603, 0.7760272026062012, 1.3481663974523783, 1759518730176039559, 
-0.30407553911209106, 0.4332834482192993, 1.3387286477485782, 1759518730205977421, 
0.07393956184387207, -0.05939042568206787, 1.347528235438521, 1759518730236004741, 
0.19767528772354126, 0.1954275369644165, 1.3347838349944459, 1759518730265969957, 
-0.47489064931869507, 0.48350435495376587, 1.317731086780475, 1759518730295799010, 
0.1471782922744751, 0.37686872482299805, 1.2353035406603268, 1759518730327424523, 
-0.21321332454681396, 0.2726118564605713, 1.3912206050900549, 1759518730355152314, 
0.2152511477470398, 0.24382352828979492, 1.28854321150144, 1759518730385068416, 
0.442272424697876, -0.03383326530456543, 1.2972217481636943, 1759518730415005228, 
0.05757254362106323, 0.8179197907447815, 1.3249039299379388, 1759518730445017010, 
0.15868538618087769, 0.4708157777786255, 1.3374587874539383, 1759518730474914117, 
0.07173424959182739, -0.12625139951705933, 1.303939930352243, 1759518730504891172, 
-0.16182196140289307, 0.13029074668884277, 1.282306261094546, 1759518730536012818, 
0.03345179557800293, 0.7812080979347229, 1.17753483097927, 1759518730568528762, 
-0.3000738024711609, 0.27011728286743164, 1.420346861659679, 1759518730594827274, 
-0.19298392534255981, 0.2642632722854614, 1.2686738356633496, 1759518730624717609, 
0.524501383304596, 0.41092395782470703, 1.1005331936330254, 1759518730647516551, 
-0.060038983821868896, 0.09509533643722534, 1.4227469948852352, 1759518730683733689, 
0.22613859176635742, 1.0006284713745117, 1.252540160132327, 1759518730714584980, 
0.3339405059814453, 0.34871459007263184, 1.2756597761133552, 1759518730744546066, 
-0.5351542830467224, -0.06532931327819824, 1.2330418778022776, 1759518730775636585, 
0.6056914329528809, 0.16494804620742798, 1.1812928833927119, 1759518730807570869, 
-0.12082958221435547, 0.61279296875, 1.3440579461731776, 1759518730834455069, 
-0.012432277202606201, -0.013344407081604004, -0.0037056269211752013, 1759518732215544567, 
0.0045119524002075195, -0.024202704429626465, 0.002029543920739038, 1759518732252093781, 
0.004290223121643066, -0.01354968547821045, 0.00488231144109403, 1759518732282249551, 
0.020190298557281494, -0.0059830546379089355, -0.0016521447915018625, 1759518732312045516, 
-0.0025581717491149902, -0.028684616088867188, -0.002389517773244682, 1759518732343789033, 
-0.00047528743743896484, -0.027152061462402344, 0.002359356711726325, 1759518732374700242, 
0.01931232213973999, -0.009221494197845459, 0.003458166896358378, 1759518732401919241, 
0.029464364051818848, -0.006888091564178467, -0.0023528503876735817, 1759518732431868724, 
0.05285036563873291, -0.014194965362548828, -0.0028034103143768233, 1759518732460766373, 
-0.005725741386413574, -0.021614670753479004, 0.001149139218698061, 1759518732491880373, 
-0.03370100259780884, 0.01437753438949585, 0.0024370370845677057, 1759518732521809508, 
0.017431974411010742, 0.005095124244689941, -0.000933830214844163, 1759518732551799627, 
0.0657617449760437, -0.021853089332580566, -0.002158574441328172, 1759518732584394584, 
0.6405549645423889, 0.44265735149383545, 0.06075364738834544, 1759518732611543458, 
2.0213024616241455, 0.20731574296951294, 0.23760165288651539, 1759518732641435712, 
0.29565155506134033, 0.12394905090332031, 0.25731617847010835, 1759518732671417891, 
0.9413719177246094, -0.30083298683166504, 0.3079979677692439, 1759518732701346469, 
0.6457758545875549, 0.10203284025192261, 0.38118459882650896, 1759518732731327511, 
0.38360661268234253, 0.15161359310150146, 0.4464802871639822, 1759518732761288242, 
0.7947773337364197, 0.12126553058624268, 0.4786073229999997, 1759518732791630491, 
0.7438706159591675, 0.20874720811843872, 0.48607603696027557, 1759518732823638294, 
0.5720286965370178, 0.15053397417068481, 0.6368158741270086, 1759518732851207367, 
0.9713895916938782, 0.4657710790634155, 0.6729216511088003, 1759518732881129465, 
0.12929296493530273, 0.38101744651794434, 0.7250650204350464, 1759518732911019490, 
0.4684063196182251, -0.13634759187698364, 0.8154297328539949, 1759518732940970006, 
0.03512465953826904, 0.3974931836128235, 0.8615067446134805, 1759518732970929516, 
1.3714431524276733, 0.466508686542511, 0.9280481158076224, 1759518733000884947, 
0.19829505681991577, 0.0857628583908081, 0.9262916363953894, 1759518733032531051, 
0.9348532557487488, 0.6534186601638794, 0.9682356034048253, 1759518733063693459, 
-0.1309366226196289, 0.5469508767127991, 1.13606201671253, 1759518733090800492, 
-0.46688878536224365, -0.46612000465393066, 1.0384433589914701, 1759518733120707943, 
0.1722669005393982, 0.22059273719787598, 1.0424218487110755, 1759518733150660202, 
-0.5234854221343994, 0.5685884356498718, 1.0328158618398673, 1759518733180700333, 
-0.8136441111564636, 0.028833985328674316, 1.0335299864252347, 1759518733210548524, 
0.6321842670440674, 0.13895589113235474, 1.0236146871159686, 1759518733240511318, 
-0.5123468637466431, 0.23570919036865234, 0.9943761200385614, 1759518733271597280, 
0.41985756158828735, 0.48656684160232544, 0.9642304640627383, 1759518733303703678, 
-0.05791252851486206, 0.49275487661361694, 1.1711953491872227, 1759518733330407719, 
0.08355432748794556, 0.32728034257888794, 1.0135176050943595, 1759518733370327615, 
-0.35282444953918457, -0.07059890031814575, 0.9863725335614004, 1759518733399728484, 
-0.9314190745353699, 0.6994383931159973, 0.8924187489166319, 1759518733432226315, 
0.26291579008102417, 0.2887246012687683, 0.9327122886407546, 1759518733463704124, 
-0.4152181148529053, 0.07037973403930664, 1.110220442696095, 1759518733491029657, 
0.23326343297958374, 0.35671812295913696, 1.044062391235321, 1759518733520046218, 
0.37577056884765625, 0.3725321292877197, 1.022952397654498, 1759518733550100085, 
-0.9277758002281189, 0.6115479469299316, 1.0069678541295743, 1759518733580259977, 
0.3000239133834839, -0.11543315649032593, 1.0247403903877825, 1759518733609994247, 
-0.24261581897735596, 0.5472097992897034, 1.0229795862701625, 1759518733639126908, 
0.21878021955490112, 0.46274203062057495, 0.9000269750037769, 1759518733672066765, 
0.3734897971153259, -0.3816031813621521, 1.017516325249181, 1759518733702524010, 
-0.48510676622390747, 0.8485722541809082, 1.0960727918823228, 1759518733730392446, 
0.9117249250411987, -0.1077871322631836, 1.03617565985814, 1759518733759669515, 
-0.17100077867507935, 0.3303496837615967, 0.9835085283186982, 1759518733789815261, 
0.17928308248519897, 0.8835452795028687, 0.9736612217085784, 1759518733819630964, 
-0.13742929697036743, -0.047786831855773926, 1.002083688024398, 1759518733849554614, 
-0.5234954953193665, 0.24581646919250488, 0.981869678371647, 1759518733879987355, 
0.4557424783706665, 0.27186888456344604, 0.9115919834956249, 1759518733911635278, 
-0.3813577890396118, -0.20883172750473022, 1.0162717197130013, 1759518733939592087, 
0.5777717232704163, 0.011478006839752197, 0.9565493092475352, 1759518733969458665, 
-0.16886860132217407, -0.0008276700973510742, 1.004223420333881, 1759518733999351831, 
0.22558540105819702, 0.8284168839454651, 1.02025398608289, 1759518734029245167, 
0.5627199411392212, 0.2351505160331726, 0.9640229155640443, 1759518734059189923, 
-1.3511176109313965, -0.18713253736495972, 0.9333066215120196, 1759518734089165221, 
-1.2320126295089722, 0.5206049680709839, 0.9126281471636263, 1759518734120102368, 
0.2001514434814453, 0.18738174438476562, 0.9095502902948117, 1759518734151990339, 
-0.5121558308601379, 0.27594566345214844, 1.107587036039716, 1759518734179099504, 
0.8505992889404297, 0.325436532497406, 1.019177871468826, 1759518734207962795, 
-0.5596403479576111, -0.1562846302986145, 0.9220971565360859, 1759518734238906945, 
-0.3090474605560303, 0.23610132932662964, 0.9512558699868547, 1759518734268885061, 
0.17760294675827026, 0.6359583139419556, 0.9700483244028727, 1759518734298850437, 
0.6007415056228638, 0.25966960191726685, 0.9951995313618242, 1759518734327765342, 
0.15630769729614258, 0.30556386709213257, 0.8875464322790174, 1759518734359812959, 
-0.6093034148216248, 0.5494937300682068, 0.8764841977091592, 1759518734391701970, 
0.008014142513275146, -0.331196665763855, 1.0615963327516447, 1759518734417733819, 
-0.40294718742370605, 0.4046187996864319, 0.9067721770060856, 1759518734448604519, 
0.6660482883453369, 0.9931361675262451, 0.953219466765054, 1759518734478538923, 
-0.09966439008712769, -0.4018697142601013, 0.9445271581892137, 1759518734508450026, 
-0.557104766368866, 0.4318431615829468, 0.9018951108412173, 1759518734538508418, 
-6.133317947387695e-05, 0.8571882843971252, 0.9291097901464975, 1759518734568432753, 
-0.5467482209205627, -0.7841789126396179, 0.8840084935488938, 1759518734599930334, 
0.4480053186416626, 0.773182213306427, 0.8768716035786125, 1759518734632081000, 
-0.1688627004623413, 0.4157707691192627, 1.090883145823738, 1759518734658329453, 
-0.5013678073883057, -0.033937036991119385, 0.9380703958227039, 1759518734688185150, 
-0.3531649708747864, 1.228142261505127, 0.9250915326809573, 1759518734718202053, 
-0.3287108540534973, 0.2650073766708374, 0.9219286478616601, 1759518734748109598, 
0.8664328455924988, -0.27542269229888916, 0.9362560386352647, 1759518734778084302, 
1.2295252084732056, 0.8188178539276123, 0.982923648238405, 1759518734808062609, 
-0.6676141619682312, -0.1624717116355896, 0.9143381103842501, 1759518734838764049, 
-0.25810277462005615, 0.20381110906600952, 0.86403800333006, 1759518734870450908, 
-0.8611416816711426, 0.8738608956336975, 0.9992839647500508, 1759518734898187336, 
-0.19035768508911133, -0.6106632351875305, 0.9567398500113355, 1759518734927806422, 
-0.2689298987388611, 0.062478482723236084, 0.9533195132109269, 1759518734956750071, 
-0.05901467800140381, 0.6910634636878967, 0.8959762531961185, 1759518734986747760, 
1.011565089225769, 0.3828473687171936, 0.850825457538053, 1759518735017703775, 
-0.2512524724006653, 0.1324896216392517, 0.8909026117907337, 1759518735047991095, 
-0.2512652277946472, 0.11557775735855103, 0.8653373541209324, 1759518735080123910, 
0.44460803270339966, 0.32591211795806885, 1.0287965791577538, 1759518735107626082, 
0.24192488193511963, 0.6634342670440674, 0.9120315924568334, 1759518735137495393, 
0.1542389988899231, 0.26728999614715576, 0.9065027011952973, 1759518735167440831, 
-0.861740231513977, -0.3398931622505188, 0.8779598035293302, 1759518735197571147, 
-0.7084973454475403, 0.10426843166351318, 0.9047244379556184, 1759518735227336656, 
-0.3036324381828308, 0.8689801096916199, 0.9121540842112893, 1759518735257329791, 
0.43298667669296265, -0.38093096017837524, 0.9087431796699911, 1759518735287724924, 
0.07655513286590576, 0.718662440776825, 0.8316445477772415, 1759518735319718945, 
-0.4942885637283325, 0.29128849506378174, 0.9299285568385143, 1759518735347556717, 
0.2825888395309448, -0.3506307005882263, 0.9009373190894279, 1759518735377206885, 
-0.6267504692077637, -0.13690924644470215, 0.9057445703100795, 1759518735407298015, 
0.30246174335479736, 0.31875544786453247, 0.8899807534464216, 1759518735437168116, 
-0.4217999577522278, 0.25622832775115967, 0.8691810329474562, 1759518735467070937, 
-0.1112322211265564, 0.2704358696937561, 0.8664697887286655, 1759518735497018500, 
0.22934675216674805, 0.5189107060432434, 0.8259682264495164, 1759518735528329581, 
-1.5119022130966187, 0.008096516132354736, 0.8733071725443029, 1759518735558759964, 
0.3709460496902466, 0.005531609058380127, 0.928169358582885, 1759518735586829456, 
0.3596532940864563, 0.9422720670700073, 0.845788640432083, 1759518735616977713, 
0.5816663503646851, 0.42798811197280884, 0.8535535307212804, 1759518735646671329, 
0.6960899829864502, -0.31902408599853516, 0.9253709514973248, 1759518735675807047, 
-1.2584984302520752, 0.44043344259262085, 0.9058647951209043, 1759518735706629672, 
0.40176719427108765, 0.5238077640533447, 0.8963569376747034, 1759518735736690294, 
-0.04859668016433716, -0.07812029123306274, 0.832905098150403, 1759518735766747348, 
0.29844552278518677, 0.3112524747848511, 0.758879513773903, 1759518735800016728, 
-0.21240174770355225, 0.49667608737945557, 1.0019283224348, 1759518735826597940, 
-0.7622542977333069, -0.07414668798446655, 0.8480420449528223, 1759518735856593538, 
0.7760514616966248, 0.21504521369934082, 0.8520711774608896, 1759518735886568082, 
-0.07632613182067871, 0.7593089938163757, 0.861328327535452, 1759518735916530420, 
0.2130480408668518, 0.20732104778289795, 0.8494519866700102, 1759518735946460526, 
-0.16918426752090454, 0.040294110774993896, 0.8857192854610618, 1759518735976482934, 
0.05488991737365723, 0.25109291076660156, 0.8257519967707537, 1759518736007813876, 
0.05898404121398926, 0.7015805840492249, 0.8486782192169291, 1759518736037522571, 
-0.6398274898529053, -0.12144684791564941, 0.8938792731496166, 1759518736066396149, 
0.6519812345504761, 0.16261035203933716, 0.8444840067874951, 1759518736096428773, 
-0.6460033059120178, 0.8291948437690735, 0.8501108981431974, 1759518736126345365, 
-0.03395438194274902, -0.1439145803451538, 0.8492963521507482, 1759518736156410394, 
0.18939745426177979, 0.21734589338302612, 0.860971338199877, 1759518736186398573, 
-1.3109642267227173, 1.0850281715393066, 0.8648147992028091, 1759518736216405695, 
0.7283239960670471, -0.638562023639679, 0.8023332717290671, 1759518736247895550, 
0.3679708242416382, 0.0722852349281311, 0.8741302438417969, 1759518736275710281, 
0.4541436433792114, 1.0350404977798462, 0.7816148467013162, 1759518736306309566, 
-0.242079496383667, 0.4510354995727539, 0.8163628253792258, 1759518736336347620, 
-1.3343126773834229, -0.635425865650177, 0.8453506866404012, 1759518736365511470, 
0.8585466742515564, 0.3685576915740967, 0.8411864406558621, 1759518736395484522, 
-0.33442652225494385, 0.6999761462211609, 0.8454864945491979, 1759518736425549018, 
0.12277060747146606, -0.2599177360534668, 0.8189137069392916, 1759518736455943862, 
-0.10370171070098877, 0.5948151350021362, 0.7638220790066955, 1759518736488852829, 
-0.06116664409637451, 0.6512451767921448, 0.9300107114888924, 1759518736515692910, 
1.0947457551956177, -0.09196901321411133, 0.855352450252076, 1759518736545674264, 
-0.4848272204399109, 0.28432542085647583, 0.8342192353661816, 1759518736575208988, 
0.05875927209854126, 0.40893250703811646, 0.8009139662920586, 1759518736605371478, 
-0.3371095061302185, 0.41446995735168457, 0.8315009460388435, 1759518736635127999, 
1.2311822175979614, -0.37631189823150635, 0.8453468098447079, 1759518736665079944, 
-0.5105052590370178, 0.3850311040878296, 0.8320715413053654, 1759518736696077790, 
-0.18962031602859497, 0.7547588348388672, 0.7569277665046922, 1759518736728893010, 
-0.4293184280395508, 0.29229533672332764, 0.9484495354173051, 1759518736754980216, 
-0.1331712007522583, -0.20353901386260986, 0.8497193236124263, 1759518736784888700, 
0.6818944215774536, 0.13673889636993408, 0.8288686681178589, 1759518736814906041, 
-0.34530913829803467, 0.6938331127166748, 0.7960210208465054, 1759518736844855854, 
0.7975792288780212, 0.27244317531585693, 0.7910180588179879, 1759518736874913087, 
-0.1413518190383911, -0.6905795931816101, 0.7854416247655318, 1759518736904832396, 
-1.0422543287277222, 0.24763107299804688, 0.7522445572466909, 1759518736936275329, 
0.2458898425102234, 1.4523409605026245, 0.7542117604452853, 1759518736967337631, 
0.5770965814590454, -0.42520999908447266, 0.9160859986664972, 1759518736994592273, 
0.026379942893981934, -0.015598654747009277, 0.8586863091333515, 1759518737024485790, 
0.7542747855186462, 0.8728872537612915, 0.8121119919757589, 1759518737054458918, 
-0.08048051595687866, 0.0869101881980896, 0.7727881661316258, 1759518737084403111, 
0.2605617642402649, -0.010906219482421875, 0.7859833573094136, 1759518737114358378, 
-0.3893545866012573, 0.1183428168296814, 0.7615138263945457, 1759518737144450575, 
-0.6391503810882568, 0.6214619874954224, 0.7110841353942294, 1759518737176132631, 
0.0393025279045105, 0.2724425196647644, 0.7600143760214356, 1759518737206993129, 
0.8200747966766357, 0.28653979301452637, 0.9034986902061692, 1759518737234196671, 
0.09765022993087769, -0.3304099440574646, 0.8289651140571561, 1759518737263066167, 
-0.6478681564331055, 1.093338131904602, 0.7610678058472317, 1759518737294057723, 
0.46344542503356934, -0.1925429105758667, 0.7984736818463459, 1759518737324093221, 
-0.128628671169281, -0.03993755578994751, 0.8219474316499062, 1759518737353945419, 
0.8119223117828369, 0.7182479500770569, 0.7728494327536934, 1759518737384473288, 
-0.32540202140808105, 0.4158793091773987, 0.7270425510292012, 1759518737416053718, 
-0.5393392443656921, 0.12662118673324585, 0.7752532377453194, 1759518737445902796, 
1.1921488046646118, -0.5840444564819336, 0.8305032787565597, 1759518737473783622, 
-0.6452484130859375, 1.1177916526794434, 0.8533154555195978, 1759518737502735870, 
-0.10287421941757202, 0.84441739320755, 0.780387846198088, 1759518737533658149, 
0.1350230574607849, -0.4231027364730835, 0.7778345536479903, 1759518737563625837, 
0.031000971794128418, 0.08579885959625244, 0.7787516724964181, 1759518737593604663, 
0.5782209634780884, 0.5775248408317566, 0.7674354062514198, 1759518737624288064, 
-0.7067602872848511, 0.3063638210296631, 0.7315341637715365, 1759518737655936665, 
-0.07514554262161255, -0.07618522644042969, 0.8315851901154782, 1759518737683506385, 
-0.6022642850875854, -0.15500247478485107, 0.7461682430260277, 1759518737713402775, 
0.17561793327331543, 0.3763047456741333, 0.7797902568266456, 1759518737743344052, 
0.08742028474807739, 0.9599663615226746, 0.7993411263993241, 1759518737773383067, 
0.4517749547958374, -0.1409059762954712, 0.777642582943626, 1759518737803209171, 
0.0015807747840881348, 0.030112922191619873, 0.7695130056416568, 1759518737833245253, 
-0.7042708396911621, 0.6524801850318909, 0.7683359204024957, 1759518737863563565, 
0.6990097165107727, 0.367297887802124, 0.6880363666024204, 1759518737896369959, 
-0.5748140811920166, -0.1489173173904419, 0.8298116261808018, 1759518737923092511, 
0.25152289867401123, 0.28833824396133423, 0.7403628535502779, 1759518737953103703, 
-0.5827574133872986, 0.6309706568717957, 0.7692581361901523, 1759518737982916168, 
-0.6512535810470581, 0.1228170394897461, 0.7592359720799354, 1759518738012911982, 
1.6433104276657104, -0.07464921474456787, 0.795580673430503, 1759518738042876602, 
0.05360335111618042, 0.5711877346038818, 0.7652710003841259, 1759518738072824242, 
-0.06384605169296265, 0.8220804333686829, 0.7247571266307444, 1759518738104031161, 
-0.17357194423675537, -0.1690136194229126, 0.7214327959033168, 1759518738135967115, 
0.17307108640670776, 0.11278128623962402, 0.8583993589322568, 1759518738162682902, 
0.05287808179855347, 0.135001540184021, 0.731804826701597, 1759518738192619762, 
-0.20691919326782227, 0.7422469258308411, 0.6230441065940363, 1759518738215874650, 
0.19312524795532227, 0.18729841709136963, 0.7955102260997284, 1759518738252556241, 
0.27005118131637573, -0.4140324592590332, 0.7811035781209812, 1759518738282535369, 
0.934786856174469, 0.5610026717185974, 0.7759058527548188, 1759518738312543914, 
-0.09282374382019043, 0.3191685676574707, 0.7214397491405109, 1759518738344533229, 
0.9338182806968689, 0.5016074180603027, 0.7369284511162938, 1759518738375080843, 
-0.602653443813324, 0.04104578495025635, 0.837446791621185, 1759518738402339036, 
-0.6583041548728943, 0.5730624198913574, 0.7584432286459932, 1759518738432221610, 
1.236666202545166, -0.019053876399993896, 0.7717752045586872, 1759518738461186453, 
-0.5748276114463806, 0.11128199100494385, 0.714586069170575, 1759518738492173220, 
-0.4111933708190918, 0.799906313419342, 0.7154614627356645, 1759518738522342277, 
0.8902674913406372, 0.24014371633529663, 0.7490203058800879, 1759518738552101285, 
-0.4333000183105469, -0.24732381105422974, 0.7067225050966328, 1759518738584101469, 
0.7756882905960083, 0.3419588804244995, 0.7965848464175836, 1759518738611996184, 
-0.18547320365905762, 0.4725140333175659, 0.7430217227290012, 1759518738641904254, 
0.434872567653656, 0.1464095115661621, 0.739755553431143, 1759518738671847122, 
0.1313779354095459, 0.02932828664779663, 0.7392480829254052, 1759518738701770107, 
0.05632889270782471, 0.17069470882415771, 0.7636317621754133, 1759518738730766122, 
0.35621410608291626, 0.45850640535354614, 0.7151136286465385, 1759518738761704123, 
0.4449707865715027, 0.22308719158172607, 0.6960326918468844, 1759518738792366045, 
0.25811856985092163, 0.008837997913360596, 0.7282139341059656, 1759518738824063221, 
-0.8164613842964172, 0.3696380853652954, 0.8346646643621088, 1759518738851667213, 
0.079470694065094, 0.4536040425300598, 0.7662071175316754, 1759518738881506409, 
0.012212812900543213, 0.42169809341430664, 0.7872924499213368, 1759518738911498494, 
1.0510010719299316, -0.5999778509140015, 0.7696772804456938, 1759518738941438474, 
-0.4205094575881958, 0.4501815438270569, 0.7546772503459519, 1759518738971377689, 
-0.05975252389907837, 0.9036335349082947, 0.7441999944044637, 1759518739001372243, 
-0.23520976305007935, -0.04295378923416138, 0.7060130915204668, 1759518739031989918, 
-0.25478315353393555, -0.3108211159706116, 0.6762894978314586, 1759518739064340204, 
0.5808172821998596, 0.4804055094718933, 0.904485835460309, 1759518739090281071, 
-0.47885406017303467, 0.43926531076431274, 0.7650190913239704, 1759518739121125739, 
-0.15192532539367676, 0.26325589418411255, 0.7716220585166559, 1759518739151072999, 
0.3631461262702942, -0.1352255940437317, 0.7696277384667373, 1759518739181111634, 
-0.7994757890701294, 0.1391749382019043, 0.7657586871863387, 1759518739210999074, 
0.715505838394165, 0.7686790227890015, 0.7407100459649288, 1759518739240968203, 
-0.21739983558654785, 0.35200583934783936, 0.7080831738031157, 1759518739271918504, 
-0.04158729314804077, -0.5609236359596252, 0.6756512042325807, 1759518739304816417, 
-0.3970189094543457, -0.014254271984100342, 0.8727077604287176, 1759518739330820157, 
0.2044946551322937, 1.2343844175338745, 0.7683178967795948, 1759518739359750474, 
0.06725966930389404, 0.31765031814575195, 0.7532239929965024, 1759518739389737846, 
-0.5998806953430176, -0.2449328899383545, 0.7128235757356568, 1759518739420658967, 
0.08187347650527954, 0.18542861938476562, 0.749790605845791, 1759518739450671880, 
-0.12550443410873413, 0.11142897605895996, 0.7415244196254045, 1759518739480991916, 
0.4967007637023926, 0.3473588824272156, 0.7078275502718874, 1759518739511957310, 
0.02954113483428955, 0.39139044284820557, 0.6928315909934345, 1759518739543702931, 
-0.6972713470458984, -0.18515992164611816, 0.8075851936543771, 1759518739570439063, 
0.6501964330673218, -0.13623088598251343, 0.763193771668898, 1759518739600342757, 
-0.8271747827529907, 0.9971939921379089, 0.8072946829739979, 1759518739630460520, 
-0.08520257472991943, 0.17326611280441284, 0.800272492802036, 1759518739659354179, 
0.28029805421829224, -0.09466934204101562, 0.7458340244623366, 1759518739689290838, 
0.35042881965637207, 0.04390537738800049, 0.7471738286983235, 1759518739720346882, 
0.8820726275444031, 0.3034512400627136, 0.69193823122584, 1759518739752922568, 
-0.31694841384887695, 0.17601001262664795, 0.7278250207594897, 1759518739782368097, 
0.44861990213394165, 0.2834784984588623, 0.781204168748578, 1759518739810177131, 
-0.12398004531860352, 0.03407120704650879, 0.7370947875085917, 1759518739840107129, 
-0.6508831977844238, 0.28586745262145996, 0.7689671110971423, 1759518739870061895, 
0.2267979383468628, 0.8976429104804993, 0.7610069781650907, 1759518739900141111, 
0.03653407096862793, 0.083976149559021, 0.7509744188805941, 1759518739929980537, 
-0.45946961641311646, -0.4154396057128906, 0.7831163234612704, 1759518739959969474, 
-0.078524649143219, 0.622253954410553, 0.7281575666152261, 1759518739991986396, 
-0.26538240909576416, 0.2574034333229065, 0.7846565792865215, 1759518740019779587, 
-0.7670846581459045, 0.06409114599227905, 0.7363112218479555, 1759518740049664022, 
0.6032171249389648, -0.12658095359802246, 0.7445455442466284, 1759518740079637713, 
-0.05144345760345459, 0.29158151149749756, 0.7643848569394254, 1759518740109599234, 
0.6841194033622742, 0.9929144382476807, 0.7578106345930887, 1759518740139500790, 
0.3413972854614258, 0.2985789179801941, 0.7774324896123024, 1759518740169517090, 
-1.0887700319290161, -0.5444914102554321, 0.7148738132843447, 1759518740200684855, 
0.5242301225662231, -0.06087774038314819, 0.7113101938078873, 1759518740232048959, 
-0.47181057929992676, 0.929743230342865, 0.8373867670217722, 1759518740259411097, 
0.04093211889266968, 0.6985898613929749, 0.7454448158920486, 1759518740289304447, 
0.12216264009475708, -0.3622860908508301, 0.7170413572654211, 1759518740319228817, 
0.09745943546295166, -0.6012546420097351, 0.7061000611445388, 1759518740349221928, 
0.5076691508293152, 0.7979186177253723, 0.7488045022761792, 1759518740379158050, 
-2.4369428157806396, 0.6040817499160767, 0.7544052378662143, 1759518740409088535, 
-1.1266037225723267, 0.08558762073516846, 0.7366542024447021, 1759518740440003340, 
0.5207990407943726, 0.13401800394058228, 0.7588083689057358, 1759518740471985552, 
0.005124807357788086, 0.27491098642349243, 0.8713457149920456, 1759518740499003178, 
-0.7253780364990234, 0.1305394172668457, 0.7870270583511796, 1759518740528898587, 
0.3423181176185608, 0.25782960653305054, 0.7646215510890169, 1759518740558841072, 
-0.041813015937805176, 0.027648448944091797, 0.7315727207088718, 1759518740588789747, 
-0.5368542075157166, 0.04483747482299805, 0.7205425228868735, 1759518740618811951, 
0.24292755126953125, 0.338534414768219, 0.7267081204064758, 1759518740648916761, 
-0.07739973068237305, 0.4583108425140381, 0.7172359105333348, 1759518740680249348, 
1.0971624851226807, 0.38176947832107544, 0.7180013668174436, 1759518740712431722, 
-0.3756367564201355, 0.012826502323150635, 0.8471814186202682, 1759518740738655309, 
-0.8679035902023315, -0.16723120212554932, 0.7570926513994218, 1759518740768506282, 
0.7730882167816162, 0.4295036792755127, 0.7600656637040594, 1759518740798530263, 
0.3662269115447998, 0.4330224394798279, 0.7419099450215874, 1759518740828419422, 
-0.30136048793792725, 0.17189383506774902, 0.7505840968512724, 1759518740858366348, 
0.22189593315124512, 0.3836172819137573, 0.7553271167743495, 1759518740888418162, 
0.36579757928848267, 0.4386063814163208, 0.7032229109353246, 1759518740920170274, 
0.2368375062942505, -0.3369065523147583, 0.7432878439168893, 1759518740950831358, 
-0.7067519426345825, 0.5536574125289917, 0.8136175011543894, 1759518740978208759, 
-0.45009517669677734, 0.3710961937904358, 0.7539509557958654, 1759518741008168687, 
0.2238471508026123, 0.2626878619194031, 0.775382484143684, 1759518741038073895, 
0.6742606163024902, -0.11406296491622925, 0.7450491739559967, 1759518741068049830, 
-0.29936909675598145, 0.4668990969657898, 0.729408513591047, 1759518741098144431, 
-0.1999453902244568, 0.4428403973579407, 0.7234306256944456, 1759518741128009026, 
-0.15094345808029175, 0.1890568733215332, 0.6810719460998564, 1759518741160441601, 
-0.04983937740325928, -0.36452561616897583, 0.807701540411593, 1759518741187941303, 
0.12815332412719727, 0.042131662368774414, 0.7629173274433033, 1759518741217883060, 
-0.32672303915023804, -0.23637592792510986, 0.759989734358012, 1759518741247926165, 
0.2692328095436096, 0.45952022075653076, 0.7529061364276218, 1759518741277842308, 
0.2845618724822998, 0.6204965114593506, 0.7891206526135213, 1759518741307630533, 
-0.11749368906021118, 0.1612621545791626, 0.7811230740436719, 1759518741337655989, 
0.3822805881500244, -0.34150850772857666, 0.7241292804557462, 1759518741368648670, 
-1.3014318943023682, 0.4588087201118469, 0.6932021412213497, 1759518741400060885, 
0.5864489078521729, 0.23229146003723145, 0.8217850246178605, 1759518741427565078, 
0.38250261545181274, 0.27026158571243286, 0.7671481432305887, 1759518741457430528, 
0.4261534810066223, 0.09608936309814453, 0.7704452406528625, 1759518741486377663, 
-0.15619522333145142, 0.4027159810066223, 0.7380686113439094, 1759518741517355337, 
0.13284289836883545, 0.28409719467163086, 0.7575605904718814, 1759518741547326382, 
0.31747204065322876, 0.24371284246444702, 0.7703372850023689, 1759518741577248866, 
-0.8476914167404175, 0.12508636713027954, 0.7177006780239296, 1759518741608500534, 
-0.13910222053527832, 0.16760694980621338, 0.6856478783994556, 1759518741640177463, 
-0.08201217651367188, 0.3349847197532654, 0.8134722370817413, 1759518741667113321, 
1.242638111114502, 0.17121821641921997, 0.7422963301035406, 1759518741697091625, 
0.004883408546447754, -0.0486031174659729, 0.754757393181672, 1759518741727012217, 
-0.7783156633377075, 1.1503667831420898, 0.7762699375568027, 1759518741757016139, 
-0.012286961078643799, -0.04363417625427246, 0.7552940548592144, 1759518741786977117, 
-0.3470589518547058, -0.22595012187957764, 0.7800626389678003, 1759518741817013662, 
0.7535194754600525, 0.5145606398582458, 0.7295360706549069, 1759518741848995429, 
-0.47482728958129883, 0.03277909755706787, 0.691476467448041, 1759518741880358980, 
-0.3494828939437866, 0.335660457611084, 0.8055610445984153, 1759518741907073646, 
-0.07185864448547363, 0.5950709581375122, 0.7479436307847986, 1759518741936969994, 
-0.34558504819869995, -0.24952661991119385, 0.7630278099219832, 1759518741966996956, 
-0.12647634744644165, 0.1493433117866516, 0.7648671662261419, 1759518741996944206, 
0.3393566608428955, 0.9191668033599854, 0.7855007713779094, 1759518742025842829, 
0.464824914932251, -0.1257476806640625, 0.7233507710998831, 1759518742056879300, 
0.07543951272964478, 0.045199453830718994, 0.7331761865260042, 1759518742088314602, 
-0.5962392091751099, 0.3094649314880371, 0.735557542589072, 1759518742119498839, 
-0.20373529195785522, 0.5192537307739258, 0.8279953459549295, 1759518742146861475, 
-0.703517496585846, 0.39457082748413086, 0.775458424284741, 1759518742175799232, 
0.5516780614852905, -0.23611414432525635, 0.7336550448318997, 1759518742206680290, 
-0.1311919093132019, -0.09546774625778198, 0.7710597838203731, 1759518742235810415, 
0.8843212723731995, 0.8559986352920532, 0.7272847955092137, 1759518742266676773, 
0.3984941840171814, 0.7015389204025269, 0.7645354847245889, 1759518742296717752, 
-0.8960510492324829, -0.33371299505233765, 0.7229260257768955, 1759518742328394403, 
0.6338996887207031, -0.24901080131530762, 0.8196163120215411, 1759518742356018158, 
-0.12144064903259277, 0.9660623669624329, 0.753904276516207, 1759518742386659920, 
-0.036733925342559814, 0.560761570930481, 0.7657544663606434, 1759518742415916518, 
0.1534034013748169, -0.38152867555618286, 0.7126476385226636, 1759518742445861187, 
-0.2732997536659241, -0.1802240014076233, 0.6916275039203309, 1759518742476045646, 
0.6857118010520935, 0.6720079779624939, 0.7286672893447789, 1759518742506026346, 
-0.3018949627876282, 0.5714545249938965, 0.7445316562647363, 1759518742536388255, 
-0.22161781787872314, 0.4820641875267029, 0.704366516848046, 1759518742568948438, 
0.24929189682006836, -0.4244909882545471, 0.8970807539051245, 1759518742594754901, 
0.000997304916381836, 0.18220937252044678, 0.7449183328875109, 1759518742625705938, 
-0.08158224821090698, 0.5624426007270813, 0.7672515247273731, 1759518742655603347, 
-0.0826026201248169, 0.49421143531799316, 0.7440059129229308, 1759518742685670602, 
-0.1232864260673523, -0.3648911118507385, 0.7420153435491337, 1759518742715605851, 
-0.2564433813095093, -0.03906649351119995, 0.7954773171159176, 1759518742744538875, 
-0.005547285079956055, 0.8600871562957764, 0.6964647832070634, 1759518742776709429, 
-0.8977432250976562, 0.312686562538147, 0.7060499297297543, 1759518742808108886, 
0.1630408763885498, -0.22484195232391357, 0.8056265046201535, 1759518742835256469, 
0.4763404130935669, 0.24834299087524414, 0.7700405566577999, 1759518742865316885, 
0.3734726905822754, 0.19573640823364258, 0.7784936188398963, 1759518742895124213, 
0.7522218823432922, 0.4747457504272461, 0.7495732414422829, 1759518742925104291, 
-0.8382779955863953, 0.16924726963043213, 0.724734995908366, 1759518742955030873, 
-0.6224345564842224, 0.13852369785308838, 0.7413291937230201, 1759518742984984922, 
-0.007042229175567627, 0.08786219358444214, 0.7199970579857111, 1759518743016938073, 
-0.13341903686523438, 1.3280408382415771, 0.7190354716871513, 1759518743048153445, 
0.16122353076934814, -0.16349869966506958, 0.8318777896783967, 1759518743074858762, 
-0.0409734845161438, -0.37035638093948364, 0.7657826160894058, 1759518743104821702, 
0.24149590730667114, 0.23840296268463135, 0.7948998955003801, 1759518743133752217, 
-0.132626473903656, 0.5923337936401367, 0.7632837552626497, 1759518743164667533, 
0.05876624584197998, 0.3290187120437622, 0.7770456558749682, 1759518743194653948, 
0.06104540824890137, 0.1995755434036255, 0.7518728113802894, 1759518743224618509, 
0.9259628653526306, -0.3997877836227417, 0.6902196359245312, 1759518743256407568, 
-0.6056589484214783, 0.38992857933044434, 0.7083511987327377, 1759518743287336150, 
-0.6124542951583862, 0.9912166595458984, 0.8126904545328283, 1759518743313503413, 
-0.004923820495605469, -0.20727688074111938, 0.7000054389113963, 1759518743344626407, 
-0.2728438973426819, -0.18942183256149292, 0.7582439601266451, 1759518743374361884, 
0.8920280933380127, 0.9169017672538757, 0.7430360171122881, 1759518743404348734, 
0.029779016971588135, 0.3222801685333252, 0.7718312711623228, 1759518743434275757, 
-0.18871742486953735, 0.5896990895271301, 0.7590200652936591, 1759518743464805542, 
-0.05097264051437378, -0.23934131860733032, 0.7214616365337901, 1759518743496304820, 
-1.3901654481887817, -0.2248026728630066, 0.750794025803192, 1759518743526215259, 
0.0852891206741333, 0.7402146458625793, 0.8121238179545546, 1759518743554079010, 
0.4474415183067322, -0.038718223571777344, 0.7689942271198568, 1759518743584059870, 
0.5258973240852356, 0.14097172021865845, 0.7613323555459971, 1759518743613945293, 
0.13204550743103027, 0.3895344138145447, 0.7591794524300869, 1759518743643970704, 
-0.035979509353637695, 0.15760618448257446, 0.751169201093316, 1759518743673935585, 
0.33108705282211304, 0.16943448781967163, 0.7536111466230443, 1759518743704374029, 
-0.34673112630844116, 0.5273796916007996, 0.6986698175765604, 1759518743736453150, 
-0.6721908450126648, 0.05757570266723633, 0.7892631672073653, 1759518743763882799, 
-0.49471551179885864, 0.4247766137123108, 0.7420604661856, 1759518743793700969, 
0.7765816450119019, -0.04737180471420288, 0.7292893606286479, 1759518743823713363, 
0.025559425354003906, 0.3050310015678406, 0.7593208954706921, 1759518743853643802, 
-0.7319109439849854, 0.5333106517791748, 0.7728419975320542, 1759518743883604889, 
0.24135702848434448, 0.0913049578666687, 0.7733286369530644, 1759518743913561304, 
-0.3379725217819214, 0.03165912628173828, 0.7508738796424852, 1759518743944415426, 
0.5395137071609497, 0.3513171076774597, 0.7102388679536746, 1759518743976701422, 
-0.42120862007141113, 0.20600885152816772, 0.8591099534831279, 1759518744003454778, 
-0.7576648592948914, 0.9506876468658447, 0.7637158877866194, 1759518744033306632, 
0.09545934200286865, -0.08716779947280884, 0.741353244552728, 1759518744063288118, 
-0.4432640075683594, -0.7133179306983948, 0.7274884253579977, 1759518744093267194, 
0.031771719455718994, -0.04370325803756714, 0.7266267812694738, 1759518744123457375, 
-0.623002827167511, 0.04508394002914429, 0.7343679546932973, 1759518744153183889, 
0.05213218927383423, 0.16934150457382202, 0.7161445196551166, 1759518744184429334, 
-0.3335786461830139, 0.583024799823761, 0.7494461373403283, 1759518744215518318, 
-0.1374800205230713, 0.18976479768753052, 0.8135650300578567, 1759518744243047881, 
-0.29012447595596313, -0.08498024940490723, 0.752328004972524, 1759518744272970591, 
-0.5962717533111572, 0.7448816299438477, 0.6525481672555293, 1759518744296057735, 
0.17181748151779175, 0.7683795690536499, 0.831222268165728, 1759518744332811705, 
-0.17780083417892456, 0.03480684757232666, 0.7496572020513239, 1759518744362837798, 
0.25463050603866577, -0.1053774356842041, 0.7340840287322145, 1759518744392810651, 
-0.8771842122077942, 0.3328474760055542, 0.7215187015979908, 1759518744424766553, 
0.5677089691162109, 0.6267929077148438, 0.7633641408621381, 1759518744455381706, 
0.019169986248016357, -0.1725124716758728, 0.827299547935799, 1759518744482659791, 
-0.7217311859130859, 0.22235721349716187, 0.7604740269443276, 1759518744512523387, 
0.4217161536216736, -0.10113579034805298, 0.7748707990100796, 1759518744541523413, 
0.07037883996963501, 0.2987479567527771, 0.7203948858031495, 1759518744572423121, 
0.41687285900115967, 0.19401782751083374, 0.7296516777185799, 1759518744602420709, 
