acc_x, acc_y, angular_z, stamp, 
0.012265801429748535, 0.009346306324005127, -1.9844801604041917e-06, 1759518766128384825, 
-0.014802157878875732, -0.010411441326141357, -5.593236223474403e-10, 1759518766158263429, 
0.022857606410980225, 0.0057021379470825195, -1.9866171890857216e-06, 1759518766188274018, 
-0.0022899508476257324, -0.012307882308959961, -5.565865800955165e-10, 1759518766218275852, 
0.0011795759201049805, 0.00395888090133667, -4.5201793721812417e-10, 1759518766249355024, 
0.008272171020507812, 0.0022112131118774414, -1.860987810305764e-06, 1759518766281389299, 
0.01016157865524292, 0.004104316234588623, -3.628513041161594e-10, 1759518766308321873, 
0.0030395984649658203, -0.013692796230316162, -1.659156289390883e-10, 1759518766338087193, 
-0.014875829219818115, 0.006207883358001709, 1.7968730203255832e-11, 1759518766368085956, 
-0.011120319366455078, -0.00451505184173584, 9.013667717586993e-11, 1759518766398194831, 
-0.007408320903778076, 0.0026593804359436035, 1.3366249548159697e-10, 1759518766428141688, 
-0.010834038257598877, -0.006344139575958252, 7.003539790511334e-11, 1759518766458108937, 
-0.014232635498046875, 0.025969088077545166, 7.597745725218353e-11, 1759518766489430671, 
0.020186185836791992, -0.006462693214416504, -4.2309613205263265e-12, 1759518766519899481, 
0.0076451897621154785, -0.0011605024337768555, -5.190711727292163e-11, 1759518766548286312, 
0.01846778392791748, -0.010226786136627197, -8.957071623557501e-11, 1759518766578005851, 
0.007740318775177002, 0.0076441168785095215, -1.1976424779034288e-10, 1759518766608078197, 
-0.013814806938171387, 0.007543206214904785, -1.48000217336097e-10, 1759518766638009488, 
0.025672495365142822, -0.019552767276763916, -1.8987600412952642e-10, 1759518766667972435, 
-0.022853553295135498, 0.019786298274993896, -2.4236815967926566e-10, 1759518766698372444, 
-0.0013285279273986816, -0.01451641321182251, -1.8956383034289521e-06, 1759518766729820499, 
-0.008396565914154053, -0.012658178806304932, -3.121228598187894e-10, 1759518766757402369, 
0.0312158465385437, -0.0072318315505981445, -2.0020247267255563e-06, 1759518766787177866, 
-0.015442073345184326, 0.014294922351837158, -1.998731957032128e-10, 1759518766817120173, 
0.042109787464141846, 0.003472447395324707, -1.8799398351398082e-10, 1759518766847130883, 
0.0023804306983947754, 0.010624706745147705, -1.995051778627629e-06, 1759518766877010132, 
-0.01571577787399292, -0.012896716594696045, -2.640349105125262e-10, 1759518766906969763, 
0.004086613655090332, -0.003983795642852783, -2.690091996712466e-10, 1759518766937447422, 
-0.01564699411392212, -0.014805972576141357, -2.455182746407514e-10, 1759518766970333501, 
0.020270705223083496, -0.00405728816986084, -2.7473352352170296e-10, 1759518766996991151, 
0.0074097514152526855, -0.004025697708129883, -2.0586182611154406e-06, 1759518767025948762, 
-0.02518486976623535, 0.008607566356658936, -2.834776182054387e-10, 1759518767055849764, 
-0.0017712712287902832, -0.004007935523986816, -2.7062072234766787e-10, 1759518767086649783, 
3.248453140258789e-05, 0.012082517147064209, -2.6940306965825364e-10, 1759518767116619259, 
0.03224366903305054, -0.011458396911621094, -1.987315806424371e-06, 1759518767146616470, 
-0.010981142520904541, -0.002514481544494629, -3.412761677003464e-10, 1759518767178150857, 
-0.030751049518585205, 0.01730632781982422, -3.218702695112518e-10, 1759518767208746407, 
0.005420088768005371, 0.015481233596801758, -2.8530600233508407e-10, 1759518767236453824, 
0.04860997200012207, -0.007998287677764893, -1.9896054518988984e-06, 1759518767266415432, 
0.014027953147888184, -0.00805431604385376, -3.17729618338192e-10, 1759518767296322277, 
-0.031026005744934082, -0.016986191272735596, -3.518724559373035e-10, 1759518767326521449, 
-0.016467154026031494, 0.02634143829345703, -2.48487636136105e-10, 1759518767356280240, 
0.04835230112075806, 0.0031546354293823242, -1.98732734820914e-06, 1759518767386274749, 
0.03723800182342529, 0.012330591678619385, -8.785559098226696e-11, 1759518767417777070, 
-0.026087641716003418, -0.021655678749084473, -6.475679161003971e-11, 1759518767449477876, 
-0.018823444843292236, -0.010623931884765625, 4.8575299146683126e-11, 1759518767476307236, 
0.035079896450042725, 0.007437944412231445, 1.1842160396510361e-10, 1759518767506137405, 
0.034722328186035156, -0.006942391395568848, -1.978359127924466e-06, 1759518767536264190, 
-0.04106408357620239, -0.0032334327697753906, 1.4655026981235324e-10, 1759518767566138562, 
-0.03377258777618408, -0.01746159791946411, 1.9814075881287632e-10, 1759518767595847214, 
0.020343005657196045, 0.007737159729003906, 2.2746715329344366e-10, 1759518767626068800, 
0.022079408168792725, -0.01381593942642212, 1.9556796285423405e-10, 1759518767657462291, 
0.005460858345031738, -0.024497032165527344, 2.5271549103244595e-10, 1759518767687902409, 
-0.06620931625366211, -0.002707362174987793, 3.910535197658056e-10, 1759518767714761387, 
0.015132367610931396, 0.009941458702087402, 2.9540401887007263e-10, 1759518767745604019, 
0.0565219521522522, 0.00806725025177002, 2.1349320368749335e-10, 1759518767775537985, 
0.0004150271415710449, -0.013658404350280762, 2.0140483205306376e-10, 1759518767805512803, 
-0.041265666484832764, 0.00792241096496582, 2.069269320233533e-10, 1759518767835430476, 
-0.024821758270263672, 0.015236854553222656, -1.9626607265856935e-06, 1759518767865796162, 
0.013210594654083252, 0.009868979454040527, 1.7879938949818053e-10, 1759518767897823458, 
0.029406964778900146, -0.015252113342285156, 1.4991735452190614e-10, 1759518767925391098, 
-0.03340369462966919, -0.0043198466300964355, 1.802642555979344e-10, 1759518767955247608, 
-0.03477907180786133, 0.002940535545349121, 1.3661609850662447e-10, 1759518767985219745, 
0.02162349224090576, -0.006146550178527832, -5.93711764330158e-13, 1759518768015125964, 
0.023810386657714844, 0.040390193462371826, -7.409399191516473e-11, 1759518768045109690, 
0.027285993099212646, -0.018972694873809814, -5.037747421732855e-11, 1759518768075078915, 
-0.05009728670120239, -0.002802431583404541, -2.6861598615079112e-11, 1759518768105878866, 
-0.010194838047027588, 0.01522916555404663, 1.8512443360336127e-06, 1759518768138075052, 
0.04744750261306763, 0.0044449567794799805, -9.111977654422875e-11, 1759518768165057136, 
0.01140362024307251, -0.01706916093826294, -7.250454862225576e-11, 1759518768194848679, 
-0.03539144992828369, -0.004340648651123047, -7.01115955163108e-11, 1759518768223811376, 
-0.042315900325775146, -0.01132655143737793, -1.1012887251145728e-10, 1759518768254783237, 
0.01375502347946167, 0.0067809224128723145, -2.114778789403226e-10, 1759518768284700235, 
0.02460259199142456, -0.014670908451080322, -2.6033556859044403e-10, 1759518768314681370, 
0.0010308027267456055, -0.02885037660598755, -2.397733947029414e-10, 1759518768345766242, 
-0.03657561540603638, 0.002023935317993164, -2.7602338302319444e-10, 1759518768377773289, 
0.0033850669860839844, 0.00228273868560791, -5.291588018751749e-10, 1759518768404715565, 
0.035971641540527344, -0.001310884952545166, 2.001863004728916e-06, 1759518768434481403, 
0.012543678283691406, 0.0005126595497131348, -5.50314471587361e-10, 1759518768464396996, 
-0.030659914016723633, -0.0028902292251586914, -5.065894818159811e-10, 1759518768494378280, 
-0.0320621132850647, 0.01509469747543335, -5.91305405134714e-10, 1759518768524344983, 
0.022019267082214355, 0.0006690621376037598, 1.990518665565296e-06, 1759518768554279509, 
0.0416637659072876, -0.017433881759643555, -5.288328590692337e-10, 1759518768586171806, 
-0.03574281930923462, -0.013859570026397705, -4.0329252590813713e-10, 1759518768617535878, 
-0.019411683082580566, 0.0004952549934387207, 2.232968464604199e-06, 1759518768644223435, 
0.01327437162399292, 0.01663219928741455, -4.5406549181354576e-10, 1759518768674426989, 
0.047511398792266846, 0.0003281831741333008, -4.4121498008375987e-10, 1759518768704055636, 
0.014772117137908936, -0.00870203971862793, -3.1487644078982293e-10, 1759518768734008065, 
-0.02668750286102295, -0.008661985397338867, -2.3591719776140037e-10, 1759518768763984385, 
0.004638671875, 0.028188705444335938, -1.0716818593419952e-10, 1759518768793921645, 
0.03876900672912598, -0.005690574645996094, -0.0014364563275667927, 1759518768824876318, 
0.7081295251846313, 0.06392008066177368, -0.0013899082560238144, 1759518768856442809, 
1.24959135055542, 0.06549066305160522, 0.02270004337184098, 1759518768892742455, 
0.7220023274421692, -0.18531733751296997, 0.006153619618196184, 1759518768923714522, 
1.2120636701583862, -0.18160134553909302, -0.010256282250607538, 1759518768953922167, 
1.0063457489013672, 0.5435783267021179, -0.012113012663011286, 1759518768986598918, 
0.8733986616134644, 0.08500754833221436, 0.0077096962391746855, 1759518769013604475, 
0.07793903350830078, -0.35631120204925537, 0.05203302849285824, 1759518769043572232, 
0.8955885767936707, -0.21409910917282104, 0.06466739078539059, 1759518769073441706, 
0.9357635974884033, -0.05079597234725952, 0.007953484897996044, 1759518769103387171, 
0.8440636396408081, 0.11157572269439697, -0.022218427417638964, 1759518769133372633, 
1.0716131925582886, 0.28391867876052856, -0.014243171976249582, 1759518769163314177, 
1.6862562894821167, 0.25821954011917114, 0.01805266475385164, 1759518769193528567, 
0.19600099325180054, -0.042701005935668945, 0.015951196652099583, 1759518769226449985, 
0.4924001097679138, 0.5986671447753906, -0.016314631038735896, 1759518769253291279, 
1.1068321466445923, -0.06723111867904663, -0.03227447286793268, 1759518769283126088, 
-0.190948486328125, -0.747744619846344, -0.0113497382423331, 1759518769313073574, 
0.34056901931762695, 0.21077758073806763, -0.02466856491440051, 1759518769343115958, 
-0.07249832153320312, 0.029826223850250244, -0.04752793992048812, 1759518769372976298, 
-0.7130081057548523, 0.2939056158065796, -0.02571110462726918, 1759518769402957819, 
-0.3112220764160156, 0.11249977350234985, -0.018570628273122898, 1759518769434248503, 
-0.14662736654281616, -0.6458214521408081, -0.015628784621382095, 1759518769466544930, 
-0.5556721687316895, 0.08671849966049194, -0.005278517606348276, 1759518769492890698, 
0.46948182582855225, 0.47400009632110596, -0.0021280153763839423, 1759518769521742113, 
0.021495163440704346, -0.283683180809021, -0.003746368150235961, 1759518769546407450, 
0.24656307697296143, -0.09532701969146729, 0.023345663561554854, 1759518769582710156, 
-0.2332397699356079, -0.7405803799629211, 0.013660725704231371, 1759518769612591425, 
-0.17312610149383545, 0.3772028684616089, 0.02194114168353981, 1759518769642547325, 
-0.15671098232269287, 0.4174870252609253, 0.023881897512115172, 1759518769674222865, 
-0.06880801916122437, -0.2065449357032776, 0.015429993419076263, 1759518769706169910, 
0.6750897169113159, -0.43905210494995117, -0.008366119179501879, 1759518769885087664, 
-0.4009595513343811, 0.4051360487937927, 0.004956624160083171, 1759518769913582131, 
-0.34866636991500854, -0.1496438980102539, 0.017902774008679748, 1759518769944659149, 
0.3425319790840149, 0.06816023588180542, 0.0632671690795773, 1759518769981978500, 
0.11936080455780029, 0.25279897451400757, 0.016192231876230697, 1759518770012028898, 
0.07173383235931396, -0.016428887844085693, -0.014572824641886814, 1759518770041986780, 
