acc_x, acc_y, angular_z, stamp, 
0.01334852030713125,-0.026846865896703972,0.008636144132940247, 28104000000, 
-0.07261738429721047,0.09334924760123417,-0.006580278394266022, 28109000000, 
-0.11798319488636104,0.08307778970088667,0.009172333658654483, 28114000000, 
-0.01662879732639806,0.0039034234656862288,-0.01297962008054065, 28119000000, 
-0.16738384486019808,-0.09831805763358722,0.003627944385081909, 28124000000, 
0.004295211186682659,0.0002888834375797686,-0.0006437440951654871, 28129000000, 
-0.16871690035609951,0.016229669909776243,-0.006099228619970452, 28134000000, 
0.035073871418247374,0.050170986103398624,0.0015587260659173832, 28139000000, 
-0.15062384950259342,-0.02792114487115445,-0.003964944581504888, 28144000000, 
0.010292897177913006,-0.015583804144900223,-0.011066302536839472, 28149000000, 
-0.0715147011002792,-0.021524670224282158,0.02648810091691182, 28154000000, 
-0.09810104815899186,-0.0693263418765924,0.004542837558920038, 28159000000, 
0.07482141338447455,0.01944615881628011,0.0007666678191848702, 28164000000, 
-0.08926769444353784,-0.056267372624462825,-0.003402847206356311, 28169000000, 
-0.05938811821284491,-0.0004996603883394459,0.0204168468854121, 28174000000, 
-0.020187002966739254,-0.025956195434974065,0.004822287566437863, 28179000000, 
-0.11550706606520313,-0.019600606587484064,0.0035142222567761446, 28184000000, 
0.08428245952864583,-0.05232713561215569,0.013337111833151628, 28189000000, 
-0.034640602734983615,0.004165950015683345,-0.009977673590631264, 28194000000, 
-0.10123265198877923,0.018743849327337924,0.017904406818922892, 28199000000, 
0.003164562289880655,0.07489792035742666,0.002730420578197209, 28204000000, 
-0.11304108308650353,-0.004229711750423502,0.004743584342386392, 28209000000, 
-0.01433640279345752,-0.09820200488818863,0.01052586451114415, 28214000000, 
0.042738238722537805,0.03178131161242951,-0.01126751428663763, 28219000000, 
-0.12265903757804422,0.01539331647213452,0.04586153627034149, 28224000000, 
-0.03478994853257442,0.11124790347683364,0.06954634212299637, 28229000000, 
-0.15258987347102496,-0.03734214367554507,0.15600801781201853, 28234000000, 
-0.13575550134922026,0.016850647408650707,0.22497956303005254, 28239000000, 
0.012186109089511732,0.05368518243666973,0.30489006292180826, 28244000000, 
-0.18937217779107657,-0.17429260340080904,0.4071797559507098, 28249000000, 
0.018066761676212267,0.14821451776241024,0.49414224275899155, 28254000000, 
0.2839466823782689,-0.00912792567540264,0.5498838058002347, 28259000000, 
-0.1442156303140286,-0.10123840710165645,0.6441980671642563, 28264000000, 
0.04700553330981546,0.1322071188673915,0.6755552969930896, 28269000000, 
-0.008862674125143973,-0.0708397572146922,0.7309531423903977, 28274000000, 
-0.03016750229242328,-0.07953900617208999,0.7532692763991707, 28279000000, 
0.009805254346328465,0.0836931868211456,0.7481480934500375, 28284000000, 
-0.0966137025667581,-0.07571957258683144,0.7224860600422486, 28289000000, 
0.36670091326785365,0.05061411079466264,0.7029631563619889, 28294000000, 
-0.04153664096926986,-0.039511313772093104,0.6650269192552918, 28299000000, 
-0.08443710248680866,-0.13537242963749035,0.6300374544282993, 28304000000, 
-0.0020710883422659014,0.12793891275878946,0.576520012971131, 28309000000, 
-0.14639363009038167,-0.09782583036577272,0.5167919412175912, 28314000000, 
0.10995863598736094,0.12146898950696977,0.47267801105234075, 28319000000, 
0.2321876833144398,0.049478277258153076,0.42457090772344375, 28324000000, 
-0.023796562256197216,-0.08466767536525269,0.3850965249565776, 28329000000, 
0.08663950593743949,0.15708238679909348,0.36302222673870554, 28334000000, 
-0.09758826700798101,-0.18044008125817,0.3709361340884523, 28339000000, 
-0.020367209035159164,0.264413696777001,0.3642966646948593, 28344000000, 
-0.11918919334762755,0.008046538785994994,0.35984528588547965, 28349000000, 
-0.18525363144530682,-0.15595247548756153,0.38845721249120074, 28354000000, 
0.004549466636788178,0.1802847091196808,0.399693752687568, 28360000000, 
-0.09274683816836407,-0.1589768014615837,0.40888063830779364, 28365000000, 
0.002691701087998516,0.1079313163878117,0.4662509186563268, 28370000000, 
-0.09762906666583199,-0.0716404298911153,0.48068049352340547, 28375000000, 
-0.15822234712321354,-0.12180576758714037,0.5177363432069966, 28380000000, 
-0.08222251650689147,0.10712527992194966,0.5437840160288206, 28385000000, 
-0.05782709859704485,-0.03866161136051362,0.5635785789133851, 28390000000, 
0.22100521528602338,-0.04662450848302196,0.5604318711080364, 28395000000, 
0.009535315006745912,0.05118878620728244,0.5931437751999233, 28400000000, 
-0.04339023189957452,-0.026353385257199134,0.5985716424791353, 28405000000, 
-0.1385714534136792,-0.12206436190071543,0.5845482576809075, 28410000000, 
0.014402643689410483,0.09389195845362883,0.5763705878562637, 28415000000, 
-0.11708859307747992,0.022876408545080724,0.5588303060326929, 28420000000, 
-0.06266412657032933,-0.1330442506653062,0.5334631467079898, 28425000000, 
0.3601205060611033,0.10552718588250262,0.537143960880275, 28430000000, 
-0.11678280267680011,0.014976519153825738,0.5193713695046798, 28435000000, 
-0.1382634384091901,-0.12481644170687486,0.5098837630512805, 28440000000, 
0.04648158921916287,0.15346285450342728,0.482274702041628, 28445000000, 
-0.034885267889394264,0.04821942707843315,0.4679488493201321, 28450000000, 
-0.11554140480887588,-0.12991538167061592,0.46745850115781146, 28456000000, 
0.3656553621667489,0.2302359701846818,0.45021624465259713, 28461000000, 
0.03972491016098493,-0.033055943440645524,0.4384273585238055, 28466000000, 
-0.08291060272320572,-0.003796229481642795,0.44730898302487176, 28471000000, 
-0.04155422486917143,0.08064614218003321,0.46740348722397806, 28476000000, 
-0.14019719725827912,-0.1253446732234376,0.46289308369359233, 28481000000, 
0.060760570197999096,0.06915057284243441,0.46496130981220735, 28487000000, 
-0.08138669230309542,-0.017222747072631425,0.4698596921709974, 28492000000, 
-0.13325814795166735,-0.20921209054539142,0.484638955846128, 28497000000, 
-0.035882136053753025,0.1980489619208348,0.5069725047880846, 28502000000, 
-0.009149115442262788,-0.05735632834864364,0.5041165743680371, 28507000000, 
-0.1682476958281342,-0.19627743681401996,0.5226241713413681, 28512000000, 
0.013671660813911277,0.20506358745755615,0.5482106577763424, 28517000000, 
-0.04372294166397432,-0.007151650375013949,0.5317606771320971, 28522000000, 
-0.08042483700242485,-0.20880711116814857,0.5314283784681157, 28527000000, 
0.36258488704225206,0.24750658994176516,0.5146411260514174, 28532000000, 
-0.17780177971530067,-0.2409410190317643,0.5049577485911775, 28537000000, 
0.04167210929551046,0.13285416959564947,0.5192078314379845, 28542000000, 
-0.06707516602410513,-0.0692914024268059,0.5203127809992398, 28547000000, 
-0.1658190434792136,-0.15231879043210383,0.5019083953450758, 28552000000, 
0.061448247940579376,0.10526626569207709,0.5029730689742857, 28557000000, 
0.23335023685929368,-0.04934042556671828,0.5015846693951097, 28562000000, 
-0.044785559151848696,-0.14460415746605787,0.5090438101718457, 28567000000, 
0.04492621362540732,0.04213846972078773,0.495416117540593, 28572000000, 
-0.1879977181951561,-0.03674524536279373,0.4892710866930844, 28577000000, 
0.06486414350933925,-0.008521863924147825,0.4866082948004522, 28582000000, 
-0.04746578118888826,0.01697263008254114,0.5127349222697863, 28587000000, 
-0.11789098563743265,-0.07883462549508582,0.5010668300993828, 28592000000, 
0.006178340917501954,0.15953604692050188,0.485035657641856, 28597000000, 
-0.03351501632626444,-0.04666476838195685,0.4987796619517544, 28602000000, 
-0.12208448399524846,-0.06087089070265856,0.46544212577651123, 28607000000, 
0.044541561512876096,0.10454398433496757,0.47705803539840813, 28612000000, 
-0.1374647518384967,-0.08638414491372085,0.4935037505203959, 28617000000, 
0.045626368237599815,0.05933186383276957,0.48144950332086917, 28622000000, 
-0.03992880493097535,0.02048858367792035,0.5146854168547762, 28627000000, 
0.21030326995202275,-0.0333541126338444,0.48894094221002316, 28632000000, 
0.0348822394502228,0.07977067616320328,0.5067519644637442, 28637000000, 
-0.06430164189793931,0.039518368401236556,0.5040070174705097, 28642000000, 
-0.18090962069670025,-0.07060769344937964,0.5278020410892849, 28647000000, 
0.07358014850440511,0.047506533566416966,0.4974900423508353, 28652000000, 
-0.06563564596867619,-0.012454328106859348,0.5038764147002694, 28657000000, 
-0.1045170239220701,-0.06042245772714254,0.4950394934020519, 28662000000, 
0.3233943954252203,0.05069608825919425,0.4979789097894732, 28667000000, 
-0.01032285588217502,-0.09091367620667412,0.5197937642190823, 28672000000, 
-0.10115416478651532,-0.11000860179105978,0.4885007262516924, 28677000000, 
0.03973203885973206,0.06311268204013215,0.4924267346425627, 28682000000, 
-0.17513086856482976,0.00576278995360853,0.48624431852512984, 28687000000, 
0.019658903197555276,-0.09921923815337383,0.49832168573099145, 28692000000, 
0.04975266591085898,0.049133717649083836,0.48010238657367904, 28697000000, 
-0.1209935365984047,-0.05364818079742727,0.4961637442154668, 28703000000, 
-0.02485082677622106,-0.008726350173724647,0.4957762028433897, 28708000000, 
-0.11150210565205276,-0.05257633859679249,0.5065588855808448, 28713000000, 
-0.09831066654651,0.04232944151463058,0.48977119954173554, 28718000000, 
-0.002760375803170227,-0.00527907893058794,0.49450496133413296, 28723000000, 
-0.1736805816925026,0.0008079863901465653,0.5053093712153088, 28728000000, 
0.34733601356383204,-0.011513532691287062,0.4946821958658456, 28733000000, 
-0.10604513054878996,-0.026286093998022043,0.48642606720773834, 28738000000, 
-0.13319483093726817,-0.03246926321845212,0.5011953100049414, 28743000000, 
0.037263093514089816,0.050940915839651844,0.48485425848370245, 28748000000, 
-0.15404929554907634,0.011897663754224328,0.4864963347187145, 28753000000, 
-0.011983333597985021,0.008149597482785532,0.5002629965538872, 28758000000, 
-0.031625178873597046,0.07013585420093474,0.4860323215280655, 28763000000, 
0.20567789124896346,-0.04190265768548309,0.5022506129100205, 28768000000, 
-0.02129653150164216,0.057734771267176785,0.5130670995173986, 28773000000, 
-0.09390316913084783,0.07778934682002656,0.5205004630634538, 28778000000, 
-0.15381113222636478,-0.0583577529237234,0.5240786023879802, 28783000000, 
0.02182317743116029,0.08531773565369397,0.49493384096177795, 28788000000, 
-0.062323806729387414,-0.03668811077193867,0.5079341376437833, 28793000000, 
-0.025134120250973585,0.03530308557868129,0.5026940001488182, 28798000000, 
0.05996840960704114,0.015353357708190938,0.4997713119757591, 28803000000, 
-0.07026663505691713,-0.018702881691645294,0.494168988349524, 28808000000, 
0.03531624389069482,-0.0178410540584335,0.5003717164555131, 28813000000, 
-0.06365197401210274,0.04369544128444704,0.5132759736092725, 28818000000, 
-0.03187073708077177,-0.026421654005076595,0.488476334426776, 28823000000, 
-0.0003628269217517202,0.041426013476681275,0.5046881554536673, 28828000000, 
-0.14218979910948867,-0.03660252500881912,0.4945207312827914, 28833000000, 
0.4042010983479203,-0.019601920098601216,0.4926648170870084, 28838000000, 
-0.06351633230528408,0.10748522691404787,0.5070706274885773, 28843000000, 
-0.18266397561101572,-0.06585070352203318,0.5001516416933488, 28848000000, 
-0.014733927625451839,0.014443923964340032,0.5044599989057237, 28853000000, 
-0.056849309562429305,0.04424759346989868,0.4963851248110366, 28858000000, 
0.028193368227705403,-0.10717978003295327,0.4864304744379065, 28863000000, 
0.16910643946858908,-0.0033604591003938904,0.5032927116948797, 28868000000, 
-0.0731446772581024,0.08716350771151518,0.4950325474255131, 28873000000, 
0.019336096387612706,-0.10087854686223971,0.48962957037481186, 28878000000, 
-0.14952718142938756,0.08516873760922905,0.4892025161248491, 28883000000, 
0.04733484611872274,-0.000845253288429635,0.48397638457501196, 28888000000, 
0.01864486933003471,0.06068245580350823,0.5093416897302036, 28893000000, 
-0.07111784191671328,0.06850339715882994,0.4915496426872908, 28898000000, 
0.37339686644768133,-0.10201869554249114,0.5159875199840332, 28903000000, 
-0.03655539969223677,-0.049609933692205586,0.48651857198283466, 28908000000, 
-0.098734787921334,0.057867653827071784,0.49527270835798815, 28913000000, 
0.019619010660287244,-0.06394302607924071,0.48961249202907, 28918000000, 
-0.11661048179359397,-0.005907897423420232,0.4948057437326648, 28923000000, 
-0.15559365525216423,0.04271529942362385,0.49722068427895233, 28928000000, 
0.042734880408206374,-0.04477192142647797,0.49884632621453434, 28933000000, 
-0.05789229170278389,0.023901213459808477,0.4995362943176096, 28938000000, 
-0.11670724840773251,-0.07741538680229942,0.4906621312652809, 28943000000, 
-0.06367078909753617,-0.049435347688412457,0.5100805872927876, 28948000000, 
-0.13485840748572575,0.05548875747612999,0.5165319382323972, 28953000000, 
0.03958707495452543,-0.0065913563512039015,0.5045711579003948, 28958000000, 
-0.13038866396036888,0.05935219039309611,0.511731860300413, 28963000000, 
0.001628905986766147,-0.027768628784170277,0.495003270976913, 28968000000, 
0.2684996577227797,-0.013045268584286908,0.49342976931448895, 28973000000, 
-0.15022261022602043,0.10414108778404763,0.4895686297011172, 28978000000, 
0.05670758113608058,-0.056068596284733825,0.47727638217915386, 28983000000, 
-0.09656235391807987,0.07502284110192577,0.4884859169513157, 28988000000, 
0.01416734148981336,-0.018425391488978853,0.5055733350180404, 28993000000, 
-0.0708432017230203,-0.021145340948116376,0.5114220827635693, 28998000000, 
-0.07523428097926811,-0.010675826426910964,0.4892746978743258, 29003000000, 
0.28988107973323846,-0.06556623237027798,0.5037532927676722, 29008000000, 
-0.0431931663954935,-0.00838571411327213,0.5080885334488671, 29013000000, 
-0.16553436931940824,0.06746629160012792,0.5030158549636216, 29018000000, 
-0.017764961991939027,-0.033257340446081064,0.4984809621465067, 29023000000, 
-0.009392709148137085,0.013472943309513544,0.49667917919596277, 29028000000, 
-0.08515113304749772,-0.009291476345085245,0.5031310261489925, 29033000000, 
-0.03181384701066131,0.013077877167516804,0.48973020948390994, 29038000000, 
-0.048914635696871635,0.02250438393577969,0.4930241612112114, 29043000000, 
-0.10904417593596367,0.076285344734972,0.49598753803099116, 29048000000, 
0.010453301271827652,-0.06504914890836971,0.5023094188338459, 29053000000, 
-0.052783440281030686,0.0407650259315853,0.5031712485918062, 29058000000, 
-0.13931890238926703,0.023150417082890097,0.49449919369379963, 29063000000, 
-0.005543248916144682,0.03226001144334841,0.4934048088292761, 29068000000, 
0.2778245610978303,-0.02253873922084248,0.5086499633001171, 29073000000, 
-0.10686914492397706,0.09946318978784366,0.4913502392058347, 29078000000, 
-0.037976313968715876,-0.011989593927404847,0.49636016739321825, 29083000000, 
-0.09050109462959027,-0.030932376179506296,0.47270790615015856, 29088000000, 
-0.07137386785615307,0.10052919568173219,0.48385956701275457, 29093000000, 
0.0019054395400464948,-0.06813036200409506,0.5129640932154432, 29098000000, 
-0.06326803273446774,-0.007945498841461774,0.4984943927546583, 29103000000, 
0.18342277825356967,0.07881338042719087,0.5138188895831567, 29108000000, 
0.09685770552027016,-0.062345295000587324,0.48749563599334134, 29113000000, 
-0.08439572728049025,0.015590119719634383,0.5075046786477615, 29118000000, 
-0.1178496166658726,0.024539623477432333,0.497901872268374, 29123000000, 
-0.0029587855459695597,-0.07503206076832128,0.4950806026449243, 29128000000, 
-0.08896224057266218,0.024292096016593604,0.5084119220042881, 29133000000, 
-0.06117156407283734,0.07812346181972306,0.5023224880037516, 29138000000, 
0.3433258090291074,-0.031180259832221766,0.48990196047224516, 29143000000, 
-0.07917742016016394,0.07462852807945906,0.5075960881935982, 29148000000, 
-0.03905338894602788,-0.0666270637511552,0.5049893901141513, 29153000000, 
-0.08337986397063117,-0.03087913517093454,0.5008374477589251, 29158000000, 
-0.13849469617016422,0.11423843753259397,0.5116961739584263, 29163000000, 
0.04492220342868993,-0.07184514074861845,0.5224521764649345, 29168000000, 
-0.10613579325460604,-0.005677982624954319,0.4924848856868689, 29173000000, 
-0.09358762284096175,0.05264523550442335,0.49384184567322253, 29178000000, 
-0.041941721052576805,-0.12947820849165212,0.5304815008171803, 29183000000, 
-0.07780005141207202,0.010064106679483062,0.5020009145431629, 29188000000, 
-0.07582540931905903,0.037005916371623496,0.4992861557421298, 29193000000, 
-0.028285150712786797,-0.13369655694573496,0.49552184213705347, 29198000000, 
-0.08812398016991525,0.1391363475091014,0.5123970166032985, 29203000000, 
0.31792502036265563,-0.042031247286729426,0.5115465215033762, 29208000000, 
0.03161762162314978,0.022753254160450584,0.501041068082696, 29213000000, 
-0.1429563306577462,0.06071732635547426,0.5053597657218153, 29218000000, 
-0.02843365261143138,-0.0620133646704881,0.5005448823285439, 29223000000, 
-0.06335617993285508,0.04277114944213006,0.49186966750683886, 29228000000, 
-0.18121495072758054,0.11898581944097607,0.4865325449433116, 29233000000, 
-0.060114755802848835,-0.06001768320185125,0.5070250063596691, 29238000000, 
0.22857817311559342,0.10125018063463768,0.4972846501174642, 29243000000, 
-0.011976716141778941,-0.07535820847712515,0.4866531363819366, 29248000000, 
-0.08362007895385493,0.01134723501831061,0.4844667411309112, 29253000000, 
-0.12697615081079064,0.12598249431064984,0.508976389898684, 29258000000, 
0.05376187056718768,-0.05143531814578509,0.4947690159802867, 29263000000, 
-0.09933237480612107,0.054071356369144674,0.49710394461057134, 29268000000, 
-0.09798226415467673,0.05817463062682197,0.5015462050620774, 29273000000, 
-0.019926461491307505,-0.04794346040106831,0.5086321016569522, 29278000000, 
-0.15245031465586345,0.13486851698157143,0.5049992925543728, 29283000000, 
-0.005141893760220002,-0.10633944878219005,0.5108746745798436, 29288000000, 
-0.13592007634308156,0.047177248838421004,0.500018383273576, 29293000000, 
-0.06311766377893555,0.0880157975463825,0.49900482966927234, 29298000000, 
0.008323746369924296,-0.00861641968790279,0.5054765372087648, 29303000000, 
-0.06750876467290659,0.10400991688807204,0.4854071257092644, 29308000000, 
0.29705855092673017,-0.04811291824409976,0.4935364487427169, 29313000000, 
-0.0840387477688012,0.08504192182959427,0.49803474168639006, 29318000000, 
-0.10968329598251164,0.056381575580966445,0.47303775383779156, 29323000000, 
-0.037591399642847786,-0.10531637862436918,0.5098177105300574, 29328000000, 
-0.12333202956793621,-0.004404453244318082,0.4981771239955754, 29333000000, 
-0.045700421971646754,0.06631481633568703,0.4925893738692609, 29338000000, 
-0.04362955161787627,-0.14337025809970122,0.48984880121068874, 29343000000, 
0.24312002225415347,0.12115023942212297,0.5093730831501848, 29348000000, 
0.06610673655681883,-0.13837480616729034,0.4811539685279135, 29353000000, 
-0.10911400212466443,0.018993283811612936,0.52158439330433, 29358000000, 
-0.07403465482464915,0.16335312794028092,0.48665898216140235, 29363000000, 
-0.03877054708864463,-0.04638499673445005,0.48331458521801157, 29368000000, 
-0.081036816741554,0.09219522369378824,0.5060156114590562, 29373000000, 
0.030970597722884498,-0.0704845696064848,0.5014653115417042, 29378000000, 
-0.003968260787575291,0.025413283567951132,0.5134452554404962, 29384000000, 
-0.14966758936944555,0.0543423746172277,0.5183564683654587, 29389000000, 
-0.014232674527411063,-0.10078301926078731,0.5022878139678522, 29394000000, 
-0.04629349449914781,0.04929102353568138,0.49833798654519196, 29399000000, 
-0.13181558690133485,0.07516350682973119,0.49978923328307856, 29404000000, 
-0.040673425602811834,-0.12368702068369854,0.4870554779945826, 29409000000, 
0.19093868711107476,0.108749772056386,0.5016877896202604, 29415000000, 
-0.02487122022914055,-0.09483092084722913,0.4895988046026105, 29420000000, 
-0.07172945037200719,-0.019051734539789745,0.506066925425141, 29425000000, 
-0.07689873719984242,0.08828248351218182,0.5034434570303499, 29430000000, 
-0.045675135930017444,-0.13306144634128445,0.498020560506665, 29435000000, 
-0.08565150991167898,0.07727870342223489,0.4925488911031503, 29440000000, 
-0.06857769650161886,0.12988476430240298,0.49754620239123226, 29445000000, 
0.3264854374752018,-0.10939303820125244,0.5028996492234291, 29450000000, 
-0.0875576375037676,0.024667405406476356,0.5019713763245457, 29455000000, 
-0.11371658012852784,0.07314511396818807,0.514591693866526, 29460000000, 
0.00011343042195190861,0.009490796109888518,0.5032959525101921, 29465000000, 
-0.09629481591964663,0.1724336878772,0.4994922228375409, 29470000000, 
-0.045399745362173775,-0.12148003474607692,0.5102954339958301, 29475000000, 
0.290505457061518,0.044944187200237184,0.5069189416449934, 29480000000, 
-0.05376330587072725,0.08964231807759618,0.5056908595592763, 29485000000, 
0.05317683579031547,-0.10855201212553277,0.5014271597751923, 29490000000, 
-0.020765692201901373,0.01646209503336695,0.5038616789164851, 29495000000, 
-0.14902819557961933,0.1940487362020138,0.5068500537291033, 29500000000, 
0.03614387431385156,-0.18393361563129568,0.4996064224730456, 29505000000, 
-0.10485057116182879,0.004320166234727314,0.48121973054767925, 29510000000, 
-0.13053401455700722,0.202257004899855,0.5094667202101665, 29515000000, 
0.06877045989354066,-0.13290010475740818,0.4795137654589217, 29520000000, 
-0.08619732006414234,0.01777499836642065,0.4750139222972776, 29525000000, 
-0.10293006693914795,0.11027081329999755,0.4999655604650583, 29530000000, 
-0.06985150050312834,-0.12590124497153618,0.5027056767594001, 29535000000, 
-0.09783034804012998,0.028672134776753157,0.5080673380930264, 29540000000, 
-0.1631973053908688,0.18902585830182303,0.4914728734022852, 29545000000, 
0.3943913298826759,-0.12117665001136188,0.5045332889465316, 29550000000, 
-0.06518387285177289,-0.0667433621179575,0.49046629669752356, 29555000000, 
-0.13989147298874388,0.17974983326734864,0.49858078745815126, 29560000000, 
0.07473934176549149,-0.17344768526414478,0.4906816372314886, 29565000000, 
-0.07240776545621089,0.1879641646352837,0.5060928659091798, 29570000000, 
-0.2313748797840804,0.2355135899623965,0.5075023431798401, 29575000000, 
0.05550769282957603,-0.1491779288050653,0.5043232414578745, 29580000000, 
0.1976856028151699,0.003611664781675482,0.4850948540887939, 29585000000, 
-0.15999430386000174,0.22099742918710957,0.49525847866432166, 29590000000, 
0.005314167210292832,-0.12497247369770492,0.4888024016415832, 29595000000, 
-0.06091458424227006,-0.04636646193751852,0.512959550825279, 29600000000, 
-0.059101209728829776,-0.009453614038625553,0.49288658615686576, 29605000000, 
-0.05212618958428923,0.11550722930611079,0.49287428218331447, 29610000000, 
-0.05515871959413925,-0.0016468496324235984,0.5237075960567829, 29615000000, 
-0.11618951166992392,0.2169378918281328,0.5063491617149545, 29620000000, 
0.027272394545297354,-0.14872133965913892,0.4956360402691105, 29625000000, 
-0.02999445046454541,0.03685082811705463,0.5030860536608052, 29630000000, 
-0.1274172929923852,0.19795860301337942,0.5103937120079513, 29635000000, 
0.042349276906740604,-0.15611402921227288,0.5196363937750984, 29640000000, 
-0.08681758059964746,0.08368050111289702,0.4750993163286508, 29645000000, 
0.2530047049701588,-0.01469982966228129,0.5136958082011875, 29650000000, 
-0.0124037907966357,0.03627131633165702,0.49053989670019904, 29655000000, 
-0.1111990411534092,0.2245614813505436,0.4888761936433978, 29660000000, 
-0.022664484996345255,-0.10443776292470221,0.49572989837061876, 29665000000, 
-0.012301095844744835,0.017713867974760815,0.502969101115357, 29670000000, 
-0.032252106549760955,0.062039384560558145,0.49018240623953735, 29675000000, 
-0.05812591334105677,0.049445535764137544,0.5062186420164897, 29680000000, 
0.19171866383278308,0.020778465380372774,0.5115913419885216, 29685000000, 
-0.06837813555149702,0.10878824309416843,0.49716915563071695, 29690000000, 
-0.10473330657877189,-0.15194669308944636,0.5143541507202877, 29695000000, 
-0.07659594229655617,0.05450408184246426,0.49030276446562476, 29700000000, 
-0.07524244030900089,0.18939797454904805,0.48952910683680295, 29705000000, 
-0.12242202326482307,-0.1076241767406145,0.5232261116900512, 29710000000, 
-0.09440739791768679,0.07662778017421239,0.5009975621737687, 29715000000, 
0.36369864786409345,0.20308478159241686,0.5078327252185845, 29720000000, 
-0.14883587694578457,-0.0876676972068758,0.5013126609482391, 29725000000, 
-0.0342532319030906,-0.005888284330205509,0.48087027917416, 29730000000, 
-0.035847533032140486,0.14607286122849694,0.4966916145095209, 29735000000, 
-0.09502475305248304,-0.04462077038969693,0.49625111515685183, 29740000000, 
-0.07174272866377607,0.00975159797516248,0.5022003623453316, 29745000000, 
-0.054710255648773035,0.040978503103031944,0.49651419520044227, 29750000000, 
-0.14020985388988222,0.055317563410449064,0.4939962154259093, 29755000000, 
-0.00957661723609574,0.11784731567335031,0.5126949844654127, 29760000000, 
-0.11856864867250341,-0.07455587663829831,0.5238803550720103, 29765000000, 
-0.057179287033821885,0.0895267511357769,0.47773129278239557, 29770000000, 
-0.04567384765331019,0.08495589382576826,0.49024596599958026, 29775000000, 
-0.14585948827717354,-0.07463249949735176,0.4987200527470888, 29780000000, 
-0.02142835199664392,0.06388768422786435,0.4921630509774646, 29785000000, 
0.2699218348780632,0.06063502757620487,0.4901483566053303, 29790000000, 
-0.09192352794186444,0.004050373144944811,0.51015641988687, 29795000000, 
0.009941519590805591,0.09753660560200195,0.4774605154029104, 29800000000, 
-0.16508899653418663,-0.1048648729687155,0.49767965358823524, 29805000000, 
-0.09622510995298642,-0.028073155245791917,0.4954175005717667, 29810000000, 
0.01932487432908156,0.10939895241788566,0.4874708155095738, 29815000000, 
0.1710909951139019,0.05493303174398384,0.5104788894828116, 29821000000, 
-0.11578325053508029,0.01589274542309211,0.5099265955553723, 29826000000, 
-0.05616356182742518,0.1043855388593028,0.4909496551551612, 29831000000, 
-0.13795104852140797,0.1190758321385085,0.4965431375285814, 29836000000, 
-0.0507013509117229,0.16069648332347336,0.5070863600168932, 29841000000, 
-0.14235976358166344,-0.03754167271361965,0.5183769231365398, 29846000000, 
-0.11038071702385033,0.008946018422179486,0.5134386723894692, 29851000000, 
0.015422971737722984,0.14152060356352106,0.4964352117709663, 29856000000, 
-0.06194702372051659,-0.0725585068222902,0.4923794532101586, 29861000000, 
-0.024386783005352717,0.043743300917998475,0.48679115002281, 29866000000, 
-0.0074334538354179115,0.1209374941068489,0.5113140607527297, 29871000000, 
-0.11770106349810447,0.02291798341407568,0.49072034834396655, 29876000000, 
-0.04619515100215531,0.034985833131831685,0.5083513441723806, 29881000000, 
0.003850392158492843,0.09547127841609848,0.5106529395780209, 29886000000, 
0.24415247445629096,-0.11391267070247235,0.4749792579970803, 29891000000, 
-0.07591178883337633,0.05128189128794276,0.49918335887272364, 29896000000, 
-0.11529284942505136,0.1053882058896542,0.4841053045878279, 29901000000, 
0.033909174514529176,0.031157239937106892,0.4990301591892726, 29906000000, 
-0.012888496204781085,0.07835600737940993,0.5123178428458148, 29911000000, 
-0.10093709986281274,0.050943058840503624,0.49825679043682475, 29916000000, 
-0.04202158967449494,0.12442655056981701,0.5045390648641555, 29921000000, 
0.30945451939460183,0.1288646524192686,0.4971586669273779, 29926000000, 
-0.15398807357238187,-0.09666217766757387,0.49401629967124977, 29931000000, 
-0.05441730947352043,0.037386983979908764,0.5101118196408521, 29936000000, 
0.03556122282208996,0.16106045630913143,0.49615844258811265, 29941000000, 
-0.12132638312997672,0.0048174010850588755,0.5038884453115102, 29946000000, 
-0.007218634892743662,0.11242108403078291,0.49280894009927784, 29951000000, 
0.03687642589124945,0.09729921495767621,0.4963573740580746, 29956000000, 
-0.13614824624456212,0.0065459132612273145,0.49911352470453985, 29961000000, 
-0.030930805562439042,0.06253699413308036,0.48895155465604795, 29966000000, 
0.02523190533688256,0.10458624222175797,0.4872640250402681, 29971000000, 
-0.09287520666938145,0.01686668166139387,0.5015925437182996, 29976000000, 
-0.02291868168422518,0.1332256202285433,0.49604913401957795, 29981000000, 
0.01861924315546787,0.1493297442934901,0.4934858215189519, 29986000000, 
0.16481267802778515,-0.08840069126232958,0.5227097327939793, 29991000000, 
-0.017568577331857894,0.1250557707609764,0.48156333303843474, 29996000000, 
0.004105332221986842,0.09702173846735372,0.5082129240331802, 30001000000, 
-0.17230801447131144,-0.06519755773373986,0.5017868078419361, 30006000000, 
-0.04194393541431148,0.11233631032955255,0.5079053650906723, 30011000000, 
0.07994388239182533,0.12432249629218795,0.4972972165424188, 30016000000, 
-0.10704270506336103,-0.00498091881746511,0.4955497320645765, 30021000000, 
0.27095800406352766,0.03299293661784676,0.5093580212072744, 30026000000, 
0.09662201039966417,0.15697355540602392,0.4945819422623968, 30031000000, 
-0.17453263838000008,0.00875462553316039,0.5018704612808098, 30036000000, 
-0.028873416395759046,0.06380200478675782,0.47842067671471256, 30041000000, 
0.0026013301616746474,0.17200623582433314,0.5049251079079229, 30046000000, 
-0.11552004416128776,-0.05141266595769996,0.49847648472858325, 30051000000, 
-0.06613127419067115,0.06376596734293442,0.5075025115383959, 30056000000, 
0.31170809343514627,0.10170746317265213,0.4927985780881772, 30061000000, 
-0.22862180545296762,-0.02178361178114082,0.5240928074906439, 30066000000, 
-0.10501454358931378,-0.046309585598398095,0.49983164066927294, 30071000000, 
0.0484280363256937,0.11924062159942095,0.5055333899960878, 30076000000, 
-0.10471717468046288,-0.01851147741549774,0.5065922409831095, 30081000000, 
-0.020313370022831078,0.10902492463194642,0.5051110132786073, 30086000000, 
-0.0010036514698454416,0.06536925813662771,0.4922345841853841, 30091000000, 
-0.09012076525222852,0.06641440544170155,0.4902904786409044, 30096000000, 
-0.07949030326329205,0.11455814555389526,0.5036899754075793, 30101000000, 
-0.0846006636590966,0.05169411627831065,0.4908422866096646, 30106000000, 
0.024596412187648267,0.056025418200100534,0.5069003122642601, 30111000000, 
-0.12706410521131598,0.006591656762656685,0.49634088779358243, 30116000000, 
-0.018492081508347656,-0.009195367199269685,0.5023867342956246, 30121000000, 
0.31368612342765045,0.05095481620604322,0.5164795871540463, 30126000000, 
-0.11361910296968561,0.01994001108536826,0.49243913806900486, 30131000000, 
-0.03689113118065866,0.04869887849648907,0.5001871003356332, 30136000000, 
0.09849825878054506,0.09721512636749022,0.4813694342226909, 30141000000, 
-0.10866852983305539,0.012668813163991136,0.4947910313537607, 30146000000, 
-0.02519640604560088,0.01943762651014498,0.5057980113445568, 30151000000, 
0.009036770157487974,0.08850574522803024,0.48815305677159593, 30156000000, 
0.11596621882311473,-0.01346523255248903,0.5048441432074189, 30161000000, 
-0.02378540697622596,0.09201508069832341,0.5217862212793989, 30166000000, 
-0.08891506342451161,0.11387646606765776,0.4999645057820148, 30171000000, 
-0.01440039513249034,-0.008489419805829589,0.4898073614046267, 30176000000, 
-0.043619375324851536,-0.0035816947833137644,0.4954234469419044, 30181000000, 
-0.08466271087502938,0.012474236067614396,0.48282023857214973, 30186000000, 
0.05013456828658972,0.04267160159022035,0.498029902406486, 30191000000, 
-0.14572478542798703,0.015424174772854116,0.497016358737458, 30196000000, 
-0.03184063737620962,0.011376599093409559,0.49137672698805634, 30201000000, 
-0.024339805930445234,0.08944795577422965,0.5016651870826675, 30206000000, 
-0.1412564364938861,-0.03538910345025324,0.5086272347528145, 30211000000, 
0.026552190090691645,0.06896642641084647,0.4906530591028254, 30216000000, 
0.06923495143889392,0.04672954459512153,0.4954147503833015, 30221000000, 
-0.25362587639990736,0.044179777722182206,0.5091913556675103, 30226000000, 
0.27655947785245766,0.006812051065390241,0.5025250087063801, 30231000000, 
0.0626684767093797,0.19013860055537662,0.4803455920644853, 30236000000, 
-0.10384676942669063,-0.007449773874317382,0.49860976361031445, 30241000000, 
-0.036128744690464676,0.03490522212041743,0.4982846107008085, 30246000000, 
-0.10130061277915894,0.08707137958067335,0.4977747650854624, 30251000000, 
-0.091074497230837,0.07478113625908547,0.4932337012025353, 30256000000, 
0.05168544686588888,0.14873748616544863,0.5052909092827232, 30261000000, 
0.1391772041494861,-0.04554362027976129,0.5051783946059379, 30266000000, 
-0.03263868354598594,0.06921281176061005,0.5104182818721625, 30271000000, 
-0.16053641874408897,0.0241032794073229,0.5018526345995805, 30276000000, 
-0.08686444391511927,0.08077217826901763,0.5100020278299138, 30281000000, 
0.05101898111076754,0.07083012980548062,0.5035560115578588, 30286000000, 
-0.2471494751844961,0.02320689595118937,0.5017593417134016, 30291000000, 
-0.08883559049534495,0.1512002857417628,0.5073186745601859, 30296000000, 
0.017460918070874767,0.13447541459137488,0.5074183732045969, 30301000000, 
-0.13673457538567813,0.0009393332197918554,0.5165094235193657, 30306000000, 
-0.037620773895628914,0.03823517646360079,0.4954966463690933, 30311000000, 
0.050457130593129715,0.06869480986839857,0.5102334027128852, 30316000000, 
-0.19634337492496412,0.01120247444462217,0.5171104810186844, 30321000000, 
-0.024349764574986596,0.13661187401212674,0.5039662418475913, 30326000000, 
0.3846562559093827,0.1665871248913105,0.509515263339063, 30331000000, 
-0.19439024623462817,-0.012891582018045347,0.4994568383463446, 30336000000, 
-0.05441744889668403,-0.006893769086361606,0.5052343709878622, 30341000000, 
-0.015928615642010265,0.04100541194793604,0.5034761184478397, 30346000000, 
-0.0628177525816679,0.05401697530921225,0.513640362392475, 30351000000, 
-0.008184404189689722,0.10486259375940846,0.5083791966462134, 30356000000, 
-0.0061631705682735766,0.12519355010380168,0.5072920420314898, 30361000000, 
0.2844606786432574,0.08926694768714029,0.4944215115462099, 30366000000, 
0.02628915458212179,0.11202530330183358,0.4859473352439931, 30371000000, 
-0.019991188675105437,0.037010353290571764,0.4873043342079551, 30376000000, 
-0.1733033519396837,0.012292957882096903,0.5055861855047037, 30381000000, 
0.10870775714319483,0.09701954315339784,0.5146531812977648, 30386000000, 
-0.17177451486571135,-0.03482149019504834,0.5188511861923076, 30391000000, 
-0.08262820653759678,0.07542570731523353,0.4978980303850944, 30396000000, 
-0.010064632918631224,0.09784795471109972,0.5067132720863508, 30401000000, 
-0.1866445514940173,0.08373545853383797,0.5090882203474989, 30406000000, 
-0.03957142772551932,0.017197359688377212,0.49367693314518174, 30411000000, 
0.06602473216651367,0.19938510952743596,0.4980565604746273, 30416000000, 
-0.1553680926949943,-0.029412130093017172,0.5042735197111528, 30421000000, 
0.004751227177151571,0.0058349931841939,0.5039484994564242, 30426000000, 
0.050427647489802635,0.12865972346953403,0.49930719835709886, 30431000000, 
0.22348951648583834,-0.009370510179081443,0.5088297925355024, 30436000000, 
0.047098606612725566,0.10698678433632257,0.48654772463833135, 30441000000, 
-0.17859271052251396,0.0031236523149630957,0.4901348529398757, 30446000000, 
-0.045128846504148265,0.0868416701194095,0.524009126208979, 30451000000, 
0.07708495963083342,0.058251063392638094,0.5010952530495937, 30456000000, 
-0.1306291222752952,0.03198618815455714,0.48356857302080114, 30461000000, 
0.1999819986732221,0.11921206429243966,0.4976619146238965, 30466000000, 
0.13185788514563548,0.07132049746538865,0.5042955084635637, 30471000000, 
-0.16223755074763657,0.003330298759811161,0.5138529698323118, 30476000000, 
0.003027450903473783,0.15619243905170813,0.5101219680463573, 30481000000, 
0.06819228325175965,0.09950704315204886,0.49983827701806066, 30486000000, 
-0.22135431263385003,0.09883569411908519,0.49434331269668863, 30491000000, 
-0.11743011957813929,0.018231188804777566,0.49341360320348077, 30496000000, 
-0.00762960521835733,0.06382404757257708,0.5180590818558133, 30501000000, 
-0.09577004776753655,-0.0055919726368514056,0.4941242410381512, 30506000000, 
0.05231277395491605,0.10546005328239484,0.5060938275121033, 30511000000, 
-0.14693536220958164,-0.05132334538732136,0.4873787852310104, 30516000000, 
0.0005701588932206306,0.09068274129259218,0.5096279265853473, 30521000000, 
0.05792263792925609,0.09263638045067006,0.5137789948893101, 30526000000, 
-0.2318563098315357,-0.06384351525316585,0.507434314787991, 30531000000, 
0.27095769371075795,0.08501054038144758,0.4926338255596109, 30536000000, 
0.02092677626913994,0.1749331393657963,0.49894327565099816, 30541000000, 
-0.15473704356776324,-0.032583580779317736,0.48345925287751196, 30546000000, 
0.013145176956424198,0.005986059290427809,0.4983293271187037, 30551000000, 
0.03648558096367569,0.14563209027040666,0.4980099969555641, 30556000000, 
-0.17401830792842446,-0.05509401836712278,0.4952033520457333, 30561000000, 
-0.044408023501349245,0.06339006244122322,0.4960653036933486, 30566000000, 
0.4167950903746826,0.14256307203857224,0.5029327387934791, 30571000000, 
-0.22701753886795195,0.044054396879372584,0.5069667521270484, 30576000000, 
-0.05144846450532495,0.06910877740436783,0.5002965030350076, 30581000000, 
0.13365638583735748,0.16100232307412676,0.5163000753705708, 30586000000, 
-0.14392434831915568,-0.04039964964851732,0.5241740675749174, 30591000000, 
-0.04547516558079365,0.06139947474356573,0.49776572022243837, 30596000000, 
0.03342518414662006,0.11250520578896894,0.5021985272501279, 30601000000, 
0.1437334698495549,-0.07218041484253164,0.5078667940955466, 30606000000, 
-0.03313782758041891,0.05653952791647303,0.51435800257815, 30611000000, 
0.07041790017974747,0.18483128441032454,0.49274386937413606, 30616000000, 
-0.18899782227332101,0.05017341890588378,0.515787386041139, 30621000000, 
0.006258885304549728,0.08197987587902157,0.5067355980042133, 30626000000, 
0.10633648479912136,0.16329580719855036,0.4998903271051062, 30631000000, 
-0.18059556078542088,0.021790944268875616,0.5073358206974873, 30636000000, 
-0.09074939304771769,0.09473329205392794,0.48690494205817847, 30641000000, 
0.09629865419485355,0.1653071904130512,0.5003273847225446, 30646000000, 
-0.15809846999103233,0.06444404580877913,0.49068961070841677, 30651000000, 
-0.03780434827419706,-0.018754765704375148,0.4836186628495085, 30656000000, 
0.06091369129060095,0.23928786598186638,0.5077531416715408, 30661000000, 
-0.20004870440044106,0.022885837342658127,0.49655750489900274, 30666000000, 
0.28618150257657815,-0.004956123049642297,0.49293886410855725, 30671000000, 
0.07919902446978269,0.10492731368118174,0.5007740511028976, 30676000000, 
-0.18726304394176793,0.05182823591223723,0.5138275039984337, 30681000000, 
-0.10308332058369762,-0.004517968821679118,0.5190170822823161, 30686000000, 
-0.015225042738940917,0.11492281416761188,0.49707496417418073, 30691000000, 
-0.030094652131859044,0.061443268980127946,0.5183242014404842, 30696000000, 
-0.10911733689164718,0.02258548067233044,0.5083997266318524, 30701000000, 
0.3044756951552637,0.03171089645869251,0.5079807366643407, 30706000000, 
0.07611092027309753,0.1719663251184497,0.5137385105004969, 30711000000, 
-0.09614889912077361,-0.03875604064002296,0.4914616495938623, 30716000000, 
-0.04282224090796979,0.03101631613915669,0.49774207774260315, 30721000000, 
0.07461334877884974,0.09974242591469049,0.4957321718544616, 30726000000, 
-0.14554144028694055,0.016007397679611447,0.4796320439761914, 30731000000, 
-0.07054004041887256,0.056792930134498903,0.5110762071144019, 30736000000, 
0.0766673987706836,0.15543263040980582,0.50094599433002, 30741000000, 
-0.19231037379461982,-0.040163075494651576,0.4866385320087247, 30746000000, 
-0.03802348846659773,0.15409307395904678,0.49026026351047647, 30751000000, 
0.04499605512164452,0.18974802704881075,0.49928400263564526, 30756000000, 
-0.17381415833378472,-0.01841384852773973,0.5133929660615669, 30761000000, 
-0.0572441458709821,0.04631771465545383,0.5047532679045863, 30766000000, 
-0.023670963715421107,0.0327213629956801,0.5092689957304228, 30771000000, 
0.3312207052051355,0.12763713482066524,0.4934078413993797, 30776000000, 
-0.05214110946670775,0.12922850570781994,0.49842099598151596, 30781000000, 
-0.04028045447096289,0.10640705666832027,0.4886039365753089, 30786000000, 
0.05396741432309856,0.06409613290250496,0.5103259796548313, 30791000000, 
-0.1628337288089589,-0.0026965126239706337,0.5102666026678218, 30796000000, 
-0.032542057742385,0.12040884035926114,0.49604477293609833, 30801000000, 
0.3415820388047455,0.2241290062733269,0.49112273886960356, 30806000000, 
-0.05772244766505798,0.054776833227924766,0.5051381990062278, 30811000000, 
-0.0503362368750021,0.14106828707635766,0.5015122349753453, 30816000000, 
0.055253280172619886,0.1380180815191429,0.47731106212727376, 30821000000, 
-0.16893227441809272,-0.07783798152727678,0.4982031204184993, 30826000000, 
-0.06167494079462494,0.004664490735369606,0.514018867631677, 30831000000, 
-0.04678740325263733,0.10253795575724858,0.506451204743791, 30836000000, 
-0.07325715026424319,0.06866393847895005,0.4849557291350341, 30841000000, 
-0.06017414055297091,0.12668772016484828,0.518741299944717, 30846000000, 
0.08028935986218186,0.12355087290391728,0.5028578604880222, 30851000000, 
-0.15867982581525458,-0.007431575708203401,0.4964395318340758, 30856000000, 
-0.08013225066470694,0.10738606215647525,0.508863460609126, 30861000000, 
0.029197238364895246,0.13570788857222688,0.5084131113331762, 30866000000, 
-0.23886513397385833,-0.03372300623623075,0.47948400860465085, 30871000000, 
0.32668389009416,0.06118387098626991,0.5021932543345029, 30876000000, 
0.03488074650781538,0.18245491863964147,0.49868929249845156, 30881000000, 
-0.13060933711264205,-0.017626389538709368,0.5002607197385784, 30886000000, 
-0.040385684052746854,0.1543866674906323,0.4966180529227238, 30891000000, 
0.04572421763975355,0.09201429142570033,0.49603959660639346, 30896000000, 
-0.15829429472734088,-0.02703089790583511,0.49170130965307834, 30901000000, 
-0.05224272814744649,0.016014008920877287,0.5040695586442583, 30906000000, 
0.33671461316852813,0.17114435864433492,0.5104553366416367, 30911000000, 
-0.17690733365190536,0.02653724865581235,0.5109712211084743, 30916000000, 
-0.012814900478071541,0.09799677691450108,0.49345825884037786, 30921000000, 
0.035947325810592665,0.14601664864979264,0.5033425278324615, 30926000000, 
-0.18643128713557505,-0.0007564537219377464,0.5047616434492703, 30931000000, 
-0.0675153269154034,0.08098705030019526,0.5169630693625288, 30936000000, 
-0.13449466035863128,0.09323134035777506,0.48235704939866453, 30941000000, 
0.18748390541127277,0.0376581857381579,0.497102741774653, 30946000000, 
-0.12432701666773152,0.12495729524920401,0.47886387875574077, 30951000000, 
0.07760229459472201,0.18540536669931637,0.5142312548151817, 30956000000, 
-0.2499215988489475,-0.1339272529300119,0.52417451757305, 30961000000, 
-0.04790972616541499,0.09072737113911376,0.5007072022019988, 30966000000, 
0.11335465093532868,0.06892735856554175,0.5133308555681411, 30971000000, 
-0.1043077369603761,0.004214289122012507,0.5024016430912475, 30976000000, 
-0.03112728746122451,0.1252797820147555,0.49889695128766626, 30981000000, 
0.05166264299837772,0.14557128475654124,0.49734088903596524, 30986000000, 
-0.16939326876966088,-0.02069169353419785,0.507790544093008, 30991000000, 
-0.0920415544713136,0.11805668539833435,0.4909859488656031, 30996000000, 
0.07087337612300101,0.1656969092688746,0.49547461005291266, 31001000000, 
-0.17220744986572206,0.07037446094426805,0.49255956291025393, 31006000000, 
0.3399453641745133,0.0985930465604352,0.5098087320214434, 31011000000, 
-0.06149367328097406,0.13397335911015434,0.48972326927710425, 31016000000, 
-0.10199643285322572,-0.003015556097953717,0.4978544602985358, 31021000000, 
0.02020617569636271,0.22097165243509032,0.5264293580082213, 31026000000, 
-0.12694651501978302,-0.009531910623589771,0.5046138454535466, 31031000000, 
-0.04850534645136961,0.018923083189710324,0.4978384602380397, 31036000000, 
0.04343809591097455,0.15211177004261425,0.508633908408478, 31041000000, 
0.1115857379226424,0.06441349263421142,0.4880793486185417, 31046000000, 
-0.03469130536059857,0.03509029416874123,0.49165177327816906, 31051000000, 
0.08512005434792005,0.2085284954469512,0.5078762641334192, 31056000000, 
-0.25631563733514307,0.03749726294833988,0.5098778458075188, 31061000000, 
-0.040184572066386835,0.10339174830719834,0.5162339429125556, 31066000000, 
0.04572521881129958,0.2005926326755224,0.5088264174085106, 31071000000, 
-0.2061231814602053,-0.0076866550520530005,0.4712338849430665, 31076000000, 
-0.07131223654937777,0.12733470687963766,0.5057711791536238, 31081000000, 
0.048556690284135874,0.14952443397178755,0.5024640290580302, 31086000000, 
-0.14707168644125337,-0.033603326471296865,0.48939092274470153, 31091000000, 
-0.042476482946513294,0.09403126149151947,0.4900831909993805, 31096000000, 
-0.05123412825349524,0.03498960014420995,0.4977168389043602, 31101000000, 
-0.06391806118613697,0.08641589079191915,0.4958170325594875, 31106000000, 
-0.05308823987855965,0.09935207423763652,0.49186261683417754, 31111000000, 
0.31916199076151386,0.09365988298613581,0.5124867073499868, 31116000000, 
-0.11949354584489538,0.0982806866314442,0.5075685334884945, 31121000000, 
0.022809592728652028,0.047937257023802846,0.5220318291144015, 31126000000, 
-0.15316599064806685,-0.025169449540304888,0.5040780539387673, 31131000000, 
-0.03992067267925637,0.16568611328723692,0.5002737807687636, 31136000000, 
0.08776633662461693,0.14135391540185127,0.5144625282277066, 31141000000, 
0.13810787184174528,0.013821528480117636,0.4826889068157199, 31146000000, 
0.06712029308417672,0.13558722556956682,0.49431247439137294, 31151000000, 
0.11093442892912209,0.1470473831537123,0.4888767373054267, 31156000000, 
-0.15376025471775098,-0.05860085170457488,0.5050769560883213, 31161000000, 
-0.031050317789015826,0.07109291181855518,0.5230490887840958, 31166000000, 
0.06842845885216667,0.17692869325760657,0.4979075718882894, 31171000000, 
-0.17610367845084135,0.054842823556779025,0.5178556894755839, 31176000000, 
-0.09381528462512023,0.04982956368885232,0.48882917372576995, 31181000000, 
0.08130639600885933,0.1586881355110495,0.4864627427764452, 31186000000, 
-0.1131449895450651,0.0843268259477396,0.5014328865038976, 31191000000, 
-0.049577543373107366,0.02126538758946076,0.48689292568905246, 31196000000, 
-0.01370910512943796,0.15721815230479846,0.5013952191509192, 31201000000, 
-0.16318195673398386,-0.015845391871139234,0.4943302747153331, 31206000000, 
-0.08623813274693139,0.13993564025147665,0.48761109630889127, 31211000000, 
0.4809424593467085,0.2103203622018798,0.4926250139127811, 31216000000, 
-0.12509229434368635,0.04744684860708044,0.5007628903034962, 31221000000, 
-0.04316250720602429,0.07441240605288715,0.5035484243394227, 31226000000, 
0.00044408785987742894,0.13039854330757478,0.5000642806139035, 31231000000, 
-0.217996862377214,-0.04352885170976298,0.49845250875234687, 31236000000, 
-0.02133995999750008,0.12817069714980717,0.5016336526536568, 31241000000, 
0.04391578916470803,0.16837964635013353,0.5003405263233301, 31246000000, 
0.18635373219936174,0.03181438989564126,0.507067216405639, 31251000000, 
0.018958263780603023,0.037968578490845915,0.4904283442389357, 31256000000, 
0.1020098040194275,0.20792570792781864,0.5029587179239232, 31261000000, 
-0.17007143300757324,-0.005503356525001251,0.4850309037253132, 31266000000, 
-0.01584161891369961,0.0995973897435348,0.4952178507249948, 31271000000, 
0.1510088327716022,0.1603071146019872,0.5095709045119035, 31276000000, 
-0.14888815461496377,-0.023913276606047328,0.5021617889653784, 31281000000, 
0.2728223820383529,0.05560159500931075,0.5018400146221578, 31286000000, 
0.029970696070455098,0.09550882186792523,0.49337742317800237, 31291000000, 
-0.17500871438798657,-0.01783940827533837,0.5023208618609438, 31296000000, 
-0.08055114401835317,0.19791225855976322,0.5042987380748204, 31301000000, 
0.07283090300515167,0.24834233967617453,0.4952284444960841, 31306000000, 
-0.13944905065261806,0.01476986135533158,0.5042094394991201, 31311000000, 
-0.033657337945571665,0.1065593024238083,0.5111105793014409, 31316000000, 
-0.02987389663896939,-0.011941842382053397,0.505388125998524, 31321000000, 
-0.07437756369470087,-0.01006324225614455,0.4900857173912282, 31326000000, 
-0.06973628169513622,0.11052770052790858,0.48298467428407743, 31331000000, 
-0.039891737412119,0.010721549477256676,0.5028786439450124, 31336000000, 
-0.07349200491318014,0.09851040083067562,0.4957005604576331, 31341000000, 
-0.0705007056078886,0.14223377234230633,0.5265318505721882, 31346000000, 
0.3923344742972349,0.07505585818042429,0.5096819496281391, 31351000000, 
-0.2188572218216043,-0.005279186910848111,0.4901071950162748, 31356000000, 
-0.050503933625091806,0.07969160832952413,0.48796710315342273, 31361000000, 
-0.04979402692798164,0.10472808017704494,0.49174332395206705, 31366000000, 
-0.03740404584131614,0.052459686008345795,0.48211071874700906, 31371000000, 
-0.1305036153312996,0.1016624045611752,0.4837114128108692, 31376000000, 
0.06259205774675479,0.24252441476687478,0.4980374116234793, 31381000000, 
0.0805167138582769,0.02024604937665538,0.49205047657122103, 31386000000, 
-0.05752388944308177,0.12885608868938478,0.4904888453791914, 31391000000, 
0.0722095510834504,0.12868614502014047,0.526600225071774, 31396000000, 
-0.16851615160503558,-0.0626142072092859,0.4945615160132664, 31401000000, 
-0.062201195638230976,0.1003586054752222,0.5046739756235814, 31406000000, 
0.07425525480002737,0.05073267736158192,0.501189517823055, 31411000000, 
-0.1456223792756901,0.08316026755703596,0.49497199791849356, 31416000000, 
-0.06243429430408985,0.14660235107180117,0.5062508361300223, 31421000000, 
0.07132060966635179,0.2272639466351916,0.509871523350897, 31426000000, 
-0.11350599532719273,0.0016995816591228118,0.5069655373181847, 31431000000, 
-0.032825470410635965,0.14569751168474682,0.5004141688722784, 31436000000, 
0.05260957545077634,0.14961081377931673,0.5036234246924125, 31441000000, 
-0.1696941045869292,0.04758655770140993,0.5066351589624679, 31446000000, 
-0.07203354285316949,0.08071429753165163,0.5068332469087266, 31451000000, 
0.577587998600601,0.19877056698971818,0.48345576609097785, 31456000000, 
-0.2242977527379552,0.02831066695963715,0.49482983947441284, 31461000000, 
-0.09562417619014499,0.06442846753057546,0.5077108127876846, 31466000000, 
0.027640382417964834,0.13062273499454277,0.49074987072345483, 31471000000, 
-0.23610694029611468,-0.03685754532701964,0.5155374608046887, 31476000000, 
-0.14512014653414385,-0.0003881703193965025,0.5059474405560317, 31481000000, 
0.2939873251848931,0.19525543490389197,0.4962919232011013, 31486000000, 
-0.10083407084685006,0.03379651498652181,0.49466596600532897, 31491000000, 
-0.07011297298905125,0.0935572683233938,0.5120043695183296, 31496000000, 
-0.002078060599909441,0.1596940158162214,0.5044938208968028, 31501000000, 
-0.1460441599518698,0.0073838497164432125,0.5073829977285192, 31506000000, 
-0.06163569096574437,0.0902138265960013,0.49550195182828966, 31511000000, 
0.08393948755293738,0.176993927668801,0.5031099966629936, 31516000000, 
0.146773482167595,-0.010854112735906078,0.5063677294986813, 31521000000, 
-0.06474112579092874,0.04698665653532184,0.5055785842196152, 31526000000, 
0.07455129359212986,0.16556263223106998,0.4901616428972812, 31531000000, 
-0.17098131191462995,0.05095444981704794,0.49397145734001807, 31537000000, 
-0.06704759801528767,0.0910025349045882,0.5148129622238187, 31542000000, 
0.10459885299865992,0.15674689747698659,0.5055248097614582, 31547000000, 
-0.16096722424932963,-0.05666693791061295,0.5051033117346256, 31552000000, 
-0.08551024197397487,0.11590031514422738,0.5016447206291375, 31557000000, 
0.0505598894227373,0.26401097489894576,0.47635650483010095, 31562000000, 
-0.14305022824215655,-0.024809175903718395,0.5047025689895728, 31567000000, 
0.029132882251576092,0.0739927532301513,0.5120663111219401, 31572000000, 
0.06489529316188966,0.15605385810864517,0.49855709819070937, 31577000000, 
-0.2378391371044882,-0.03995515452774691,0.5061729418757753, 31582000000, 
-0.07353413496464534,0.10805006562174344,0.49979655873426193, 31587000000, 
0.31591634647145334,0.13689560143393262,0.5107277300051305, 31592000000, 
-0.22759941120500432,-0.03087842980723671,0.5046837702455783, 31597000000, 
-0.03005375246337855,0.06979775926561084,0.4894816849411443, 31602000000, 
0.08030617996059901,0.09352600119539001,0.4990910645828917, 31607000000, 
-0.06711485874522365,0.07363457739661233,0.4858711677513666, 31614000000, 
0.017249382955939856,0.15925784890669042,0.4855365271300775, 31619000000, 
0.193968721496292,0.011714727912980286,0.5192758804458472, 31624000000, 
-0.04283224446362386,0.0535631822140914,0.4852006425452181, 31629000000, 
0.05135330958725791,0.20477947657539564,0.49207068278007027, 31634000000, 
-0.17207622285062735,0.08399782537772894,0.5135574260635372, 31639000000, 
0.011018534729843273,0.06984478799895667,0.5081308190122945, 31644000000, 
0.027425093575005763,0.14693506838785778,0.5095201133060784, 31649000000, 
-0.1625496694093407,-0.017392043499374104,0.5002143724135157, 31654000000, 
-0.05647179601341091,0.10087330037137977,0.5192978606083546, 31659000000, 
0.036765609697301464,0.2554470085629688,0.49479191263413136, 31664000000, 
-0.13569294335399382,0.028375601610153324,0.4939456654532951, 31669000000, 
-0.06493321578820047,0.10019683072242147,0.49866996368755756, 31674000000, 
0.12445367641164573,0.18945878780344516,0.48464513910564233, 31679000000, 
-0.0758437538081419,0.05055392731992421,0.5183803331830977, 31684000000, 
-0.010584087855077008,0.09291977749206735,0.5236400050575918, 31689000000, 
0.3776300216728674,0.19459490984934816,0.49112441192153894, 31694000000, 
-0.13888914252595397,-0.0671997797141793,0.50486111277624, 31699000000, 
-0.0857392188962033,0.17548736558148553,0.5072194153052516, 31704000000, 
0.056418032916811724,0.19563393189213854,0.49577501905032606, 31709000000, 
-0.1726143880368099,-0.09084430147658143,0.48053993160820796, 31714000000, 
-0.10350293267446525,0.02204646385440036,0.4991075648509682, 31719000000, 
0.37952611476975856,0.15738625217584135,0.5130479558727377, 31724000000, 
-0.08923774785109347,0.04342031374996094,0.500864845998039, 31729000000, 
-0.07841104431267651,0.14829445176988604,0.5080813121899528, 31734000000, 
0.07659907275623419,0.2614245118302849,0.5135453113451903, 31739000000, 
-0.19951679175331113,-0.04049478916162429,0.5027622711754698, 31744000000, 
0.019245905943709826,0.15583471740405946,0.5130454598778927, 31749000000, 
0.07435078310266155,0.13813554495916186,0.4985042884680027, 31754000000, 
-0.17766600391924084,-0.07343129686375723,0.47730627362480804, 31759000000, 
-0.020146484245607124,0.08147359557507394,0.5028548553226031, 31764000000, 
0.11938440372422544,0.22982475622034315,0.49447214966370695, 31769000000, 
-0.09451752263022642,-0.043992559164218605,0.5003124306802577, 31774000000, 
-0.06918871278149771,0.15283980584836784,0.501117807298029, 31779000000, 
0.05274645224228802,0.15445963272587085,0.5028274345957315, 31784000000, 
-0.19556743207272506,-0.0335107108886423,0.49010494770901664, 31789000000, 
0.32203519367672384,0.1182162163975908,0.4996064551918906, 31794000000, 
-0.10224838240304225,0.09845336147091266,0.4999522271142748, 31800000000, 
-0.06928432639614913,0.09089582409813858,0.5111842321502108, 31805000000, 
0.09383985874982674,0.22066392646133148,0.4887523140541364, 31810000000, 
-0.21190249956009932,0.040814479268961715,0.5068787433873174, 31815000000, 
-0.031322028981596174,0.13879592742471641,0.48793821416238936, 31820000000, 
0.062419968019376125,0.16974350731920784,0.5210118932499124, 31825000000, 
0.14040391261021956,-0.008786712086399,0.48076549926072537, 31830000000, 
-0.06484691731065162,-0.0064276786891909465,0.5151279753286478, 31835000000, 
0.0970570524556318,0.1419656492278872,0.5039658776666888, 31840000000, 
-0.14555122316753089,0.015508311068936968,0.49210176961306634, 31845000000, 
-0.027072501985670315,-0.024331037337417302,0.5001117247255321, 31850000000, 
0.034385445565956504,0.1959015854062922,0.5027072930084716, 31855000000, 
-0.09860558336143956,-0.059920267118331524,0.5085712657592351, 31860000000, 
-0.1210679652367285,0.15059903090430038,0.4934606394648371, 31865000000, 
0.0036514461107403293,0.16156849976070456,0.5013952829249994, 31870000000, 
-0.14821715584598594,0.038129091261151285,0.4966233432113538, 31875000000, 
-0.041133541061408374,0.10489631011373673,0.49534106091851904, 31880000000, 
0.04903890157249556,0.15778237199926565,0.5056139948647251, 31885000000, 
-0.14391454745704638,-0.11969324905494054,0.4985754686765025, 31890000000, 
0.2583101481199465,0.08797515747748218,0.49559095252057134, 31895000000, 
0.03716739669544958,0.19931909028025677,0.4989608949184731, 31900000000, 
-0.18940882973926643,-0.08440386454247348,0.5141285110227832, 31905000000, 
-0.04515141287639167,0.1276478646384978,0.5236391543721758, 31910000000, 
0.06716556289324656,0.18304976966951259,0.5183625829671928, 31915000000, 
-0.14766999180475376,-0.02279449049064128,0.5048416577427389, 31920000000, 
-0.06666722786248241,0.06906749413674435,0.5059389312421121, 31925000000, 
0.5131299833728058,0.29138033094106763,0.48983195244652084, 31930000000, 
-0.15704175339946524,0.0009682554812888121,0.4948146769556464, 31935000000, 
-0.04105585565583684,0.11514988490141814,0.49230986794011256, 31940000000, 
0.034604096059129605,0.21133612844488286,0.500698991934285, 31945000000, 
-0.1792194010195622,-0.001584636896705501,0.5063410264871084, 31950000000, 
-0.008377835124756698,0.061427919503965527,0.5129501073218133, 31955000000, 
0.041683696958545575,0.11581663651842712,0.48459801503318295, 31960000000, 
0.20036299164280025,0.007144562286836523,0.5059851871076144, 31965000000, 
-0.05812580164601448,0.06763078279327062,0.49927585946466563, 31970000000, 
0.07911005716570367,0.20159372106819357,0.5170301228401324, 31975000000, 
-0.11772024939578422,-0.010651165858752644,0.5348730501294408, 31980000000, 
-0.0303983387073475,0.12115865886742476,0.49332153838371523, 31985000000, 
-0.040202848930141116,0.07507861581400772,0.49254570027838446, 31990000000, 
-0.004572435506763787,0.11970295194195593,0.4997351556772976, 31995000000, 
-0.11651178859700742,-0.0015399535046050211,0.48854620010076943, 32000000000, 
-0.04658373320787896,0.13748085568275087,0.499121293919639, 32005000000, 
-0.03570934079083384,0.1105853494332843,0.5085818782392785, 32010000000, 
0.059919526305720075,0.11525349276351426,0.5295378366198056, 32015000000, 
-0.010186193169266479,0.12408441479215385,0.49292542892423336, 32020000000, 
0.012232401420412951,0.2377816734764972,0.4948615396086161, 32025000000, 
0.020928487801515946,0.011455978125848285,0.4880963835099489, 32030000000, 
0.08823055015086959,0.1936332019853751,0.4926899655687684, 32035000000, 
0.022333965163579456,0.1745258757361351,0.4935527992042669, 32040000000, 
-0.23745809568349072,-0.04595984324210921,0.5035978744100356, 32045000000, 
-0.04453951238545368,0.06067312457879303,0.49860306952971656, 32050000000, 
0.08703914600973932,0.2416882526246272,0.5094979266333457, 32055000000, 
-0.07050288535291002,-0.02151026047932327,0.5094047020019666, 32060000000, 
0.19608962783641912,0.08695808286085367,0.49920583519989115, 32065000000, 
0.08212418399911221,0.25332650475158347,0.5045602368531631, 32070000000, 
-0.20233992939242457,0.010470469126395987,0.50693989242609, 32075000000, 
-0.03508235226642255,0.12439871058190195,0.4976989439410211, 32080000000, 
0.03558895195935822,0.21086128990328193,0.48988535041081654, 32085000000, 
-0.1827341025089862,-0.021045598166831186,0.5018079211822498, 32090000000, 
-0.034147185185551966,0.08844454958508176,0.5053903327060201, 32095000000, 
-0.04696133213584111,0.0624985687446097,0.5042049507160676, 32100000000, 
-0.03380761970146952,0.0558314934002143,0.4896619884065109, 32105000000, 
-0.10373655032035121,0.08741767319159424,0.4978456410696917, 32110000000, 
-0.07949494415452305,0.029735179153069398,0.5018594351393638, 32115000000, 
0.056777737138030304,0.2525212239330283,0.4955807286641471, 32120000000, 
-0.1444529435449904,-0.052831837522528693,0.47894456434801636, 32125000000, 
-0.04351480659073629,0.12078786246686778,0.4945441831627048, 32130000000, 
0.3548330648375232,0.15770479624592249,0.5053305045088267, 32135000000, 
-0.2224333211159908,0.026795142636663945,0.48638014576350447, 32140000000, 
-0.11344298268104998,0.08149027689427643,0.5057571963771915, 32145000000, 
0.09672183115144498,0.19833943995399184,0.5023085636201444, 32150000000, 
-0.17036585410370886,-0.05683525861994816,0.4855019549884898, 32155000000, 
-0.0447217938277059,0.09306876256340396,0.49353923786680803, 32160000000, 
0.11498983936778295,0.24649696772092375,0.48681154231922485, 32165000000, 
0.17073174149579662,0.05308763601690224,0.501145835721893, 32170000000, 
-0.055262857228607166,0.08883955492973311,0.5050641148431566, 32175000000, 
0.11391771117261468,0.19326825417988028,0.5170763785601492, 32180000000, 
-0.14604804379228697,-0.03242844187811883,0.5040929030673759, 32185000000, 
-0.035187365522630874,0.12380768076768382,0.5107678567275122, 32190000000, 
0.032811508160054785,0.16922310078399228,0.5068954089191997, 32195000000, 
0.05937741987771769,-0.047302971078707796,0.49340027345006726, 32202000000, 
-0.05170190337693267,0.04605197396002878,0.500848568671688, 32207000000, 
0.12367213574240049,0.21912844904692255,0.5024908074365498, 32212000000, 
-0.18284592354813983,-0.0809483067174263,0.4924929905869979, 32217000000, 
-0.06191504235080943,0.11583866102013546,0.49611771821356143, 32222000000, 
0.023656332615467367,0.1935479794487481,0.500406029400765, 32227000000, 
-0.17209282114610744,-0.06839298620399917,0.4909936832109507, 32232000000, 
-0.012511311914574455,0.0864448454924454,0.5007816787398839, 32237000000, 
0.025536849378944813,0.201882940793351,0.508346377821199, 32242000000, 
-0.16790880933281607,0.0015957558215628385,0.5135736912795765, 32247000000, 
-0.06881018705391719,0.06923688498365646,0.4789303809155919, 32252000000, 
0.07178825594318396,0.2242826285749417,0.5162659460540076, 32257000000, 
-0.1807741989698585,-0.032009202062328664,0.5072670961805902, 32262000000, 
-0.030436256871760076,0.15146010179670752,0.49830666779345645, 32267000000, 
0.36162873520748245,0.33204076649895226,0.4933891961866142, 32272000000, 
-0.1658865258576011,-0.051540698848418304,0.4845043452222495, 32277000000, 
-0.00262769926333474,0.051527823752897425,0.5135448951297965, 32282000000, 
0.031768993302262405,0.23409275795407442,0.5010337204580044, 32287000000, 
-0.16554432544351658,0.026694266547840493,0.5062512387938092, 32292000000, 
-0.04023020442622491,0.1742623435632614,0.48837183598343487, 32297000000, 
0.33388075193854083,0.1939545614036099,0.5184797966529988, 32302000000, 
-0.12964043958534557,-0.09049209040715649,0.5101985059823814, 32307000000, 
-0.09998309279867382,0.041411510148494146,0.49259320074331314, 32312000000, 
0.029968706065313596,0.19169884887388838,0.4789399960362417, 32317000000, 
-0.1799554385955617,0.006227814395364059,0.4951847951285611, 32322000000, 
-0.10539173276685125,0.04129375084197297,0.49564024007476204, 32327000000, 
0.11207338986342671,0.232669337473338,0.49280038827994405, 32332000000, 
-0.17113442713956312,0.04828680677368878,0.49270244003894703, 32337000000, 
0.00953079309292704,0.082383217816279,0.5289635378394196, 32342000000, 
0.0974703524345291,0.26056349322782213,0.4995132705130562, 32347000000, 
-0.23698190729170765,-0.025090445443721323,0.49890118639004394, 32352000000, 
0.009517194195981633,-0.01790267654168197,0.5025051976920492, 32357000000, 
0.012326134987153334,0.22443396147861483,0.5011317657298094, 32362000000, 
-0.16103175938497194,-0.02850163336222621,0.5069595130466832, 32367000000, 
0.2871087036742858,0.13763149583694348,0.4902896577295806, 32372000000, 
0.12119744647469802,0.24526953040578464,0.5287544427832527, 32377000000, 
-0.22172876854838966,0.0471248665007548,0.5058335309381795, 32382000000, 
-0.027701317771922015,0.15565580445397448,0.4891458860412112, 32387000000, 
-0.001331882614137258,0.16167438043066742,0.49316342390364093, 32392000000, 
-0.15978678069744529,0.01823448768580585,0.49165094344111154, 32397000000, 
-0.04779598477875777,0.08302141224816828,0.5291376915854221, 32402000000, 
0.43410337313839314,0.28475181955790924,0.49972870547045056, 32407000000, 
-0.18009599503102947,-0.04774918542647205,0.5136102590167018, 32412000000, 
-0.07121156594951758,0.10880326635640412,0.49244629923651584, 32417000000, 
0.0895655236354241,0.26768600830453887,0.49661353114517753, 32422000000, 
-0.17363368932871884,0.0052987063504273055,0.5118015842552085, 32427000000, 
-0.08283829422013636,0.13663123467561608,0.4983885739713917, 32432000000, 
0.06573516801441662,0.22803122007420304,0.4974224721130457, 32437000000, 
0.0902691617171067,-0.08570252098160763,0.4987967478551877, 32442000000, 
-0.07616709211245748,0.021809054261120092,0.4873948520128404, 32447000000, 
0.11292866724823818,0.19480494587123126,0.4897043681728982, 32452000000, 
-0.19151837021368165,0.04020940595296752,0.5015796167570387, 32457000000, 
-0.041923058176945055,0.07084770879309818,0.5155947665367255, 32462000000, 
0.0002418972046522288,0.15774795424209534,0.49691433610270264, 32467000000, 
-0.1662113136143273,-0.002328705033855882,0.5102702439645856, 32472000000, 
-0.013232736177701076,0.10047395921658403,0.5005301989671271, 32477000000, 
0.05942009735266216,0.26877261939468233,0.5147354947313937, 32482000000, 
-0.09987977946055934,-0.01816124870975098,0.497841536763381, 32487000000, 
-0.0604404453366871,0.10381966067025479,0.5105952228943298, 32492000000, 
0.06239889734138988,0.2351146385183599,0.49359584693708713, 32497000000, 
-0.17805060190021102,-0.010299132199586891,0.5029730507452099, 32503000000, 
0.34344426410139917,0.08347865680641335,0.5030779297071888, 32508000000, 
-0.003054843917419175,0.20619494938074145,0.4992797413351443, 32513000000, 
-0.13086411070466897,0.015113966453847409,0.4763646364316212, 32518000000, 
-0.03700182896455263,0.10589512518387906,0.502595135488304, 32523000000, 
0.02650150054900076,0.27616195238065827,0.5000189494941617, 32528000000, 
-0.1592387364281584,-0.002397481245239258,0.48714265422303515, 32533000000, 
-0.0004116584607236455,0.05949700961979959,0.5099167760714359, 32538000000, 
0.22495033857791913,0.0688199379978102,0.5056286748642195, 32543000000, 
-0.05796236404197547,0.19095959233706183,0.4916054804832056, 32548000000, 
-0.10780393505124318,0.17049243016472113,0.5094838225634216, 32553000000, 
-0.08578318435385265,0.10407776154648893,0.5297937542030526, 32558000000, 
0.00485410257692126,0.12858361192690806,0.49662467563720714, 32563000000, 
-0.11831641963569517,-0.08983044252007576,0.5167236693411975, 32568000000, 
-0.03988475462402798,0.13830206894827193,0.5118481020292948, 32573000000, 
0.04578474343964768,0.17005697246686338,0.5142935902329112, 32578000000, 
-0.1529110247189603,-0.05190768396706497,0.503326001785506, 32583000000, 
-0.050788431509430056,0.13029915781930365,0.5005514794409898, 32588000000, 
0.06070442316771659,0.21840491454024413,0.4991271827092555, 32593000000, 
-0.10413603823198904,-0.07537329272020621,0.49254927388575614, 32598000000, 
0.029129507892124408,0.21220267903051301,0.4897543330544043, 32603000000, 
0.18936016061227295,0.039206748591641194,0.4867706317710121, 32608000000, 
-0.012515879212984268,0.1157055100587845,0.500331299592964, 32613000000, 
0.09503288832278597,0.20388627980722157,0.4942718318105563, 32618000000, 
-0.15755869810776513,0.02028873126893303,0.48939344972795856, 32623000000, 
-0.09304692266394471,0.14553382634511175,0.5219922379481233, 32628000000, 
0.063127127605708,0.2976139510931666,0.4879012589228026, 32633000000, 
-0.09818586463295209,-0.0026244199360786827,0.47599984574462717, 32638000000, 
0.27853912792411506,0.1497296917880296,0.48300406882910113, 32643000000, 
0.025316355958213944,0.2261696928862927,0.49827472909432086, 32648000000, 
-0.1500566660061664,-0.06083903089753971,0.4945562346223335, 32653000000, 
-0.0770456043524063,0.11582087958652085,0.4945551306157084, 32658000000, 
0.10348913276149897,0.2154403470463686,0.5078636545435444, 32663000000, 
-0.19641972129459215,0.00522313562879149,0.49514071080928584, 32668000000, 
-0.09562067629461046,0.08981553541053439,0.5108632780280089, 32673000000, 
0.07532224402676489,0.17429153864452473,0.5069030942738333, 32678000000, 
-0.17566125912150038,-0.09789800748631527,0.4826174933456156, 32683000000, 
-0.06349258752925255,0.06187387573828443,0.5044721237704913, 32688000000, 
0.0347850949890066,0.13319499086122844,0.49208429699360057, 32693000000, 
-0.17386570373243715,-0.061274031246823374,0.515114683103829, 32698000000, 
-0.057312906341571,0.08732117283965136,0.49525198596922154, 32703000000, 
0.0875953642845522,0.18149885232688803,0.503341840936199, 32708000000, 
0.22347989988403796,-0.11076522871497907,0.49656086304692176, 32713000000, 
-0.01876917114343532,0.18072132474963443,0.5169364851472386, 32718000000, 
0.04853597035323527,0.16641408370344293,0.5030407904917906, 32723000000, 
-0.10528317884308046,0.02217124285348599,0.4935002150900978, 32728000000, 
-0.021247064586249906,0.13625293310036496,0.5057682519641243, 32733000000, 
0.1367742968103579,0.3080966814512083,0.5082062472635145, 32738000000, 
-0.15734020558740672,0.08397382970064808,0.5026839321828247, 32743000000, 
0.2332642014297065,0.10453130846895001,0.4974359445469966, 32748000000, 
0.07832392955153089,0.24696546270252595,0.4957300286274824, 32753000000, 
-0.18492980535919773,-0.03242488474964291,0.5069790979278668, 32758000000, 
-0.0830051248442717,0.13567774654550954,0.5042852342094987, 32763000000, 
-0.0038834007239481744,0.12555265816175287,0.49663045662232663, 32768000000, 
-0.15078520737436454,-0.02682045407833403,0.4979255855981959, 32774000000, 
0.30010002846479206,0.20786223266944973,0.5178288961118193, 32779000000, 
0.11611494799057631,0.27753221100568365,0.4820824035058164, 32784000000, 
-0.1387209364195418,0.010281740200579426,0.5065183196289215, 32789000000, 
-0.018251888894557255,0.09333239166466357,0.4992271003625552, 32794000000, 
0.053272108815350064,0.21775574929045338,0.5100891009486778, 32799000000, 
-0.16417785809979882,-0.02512610033914623,0.5008461162629912, 32804000000, 
-0.040281031595543394,0.12551109636007504,0.5197495917690148, 32809000000, 
0.09691764539983463,0.37808142838007763,0.5036979927971377, 32814000000, 
-0.1649108823813585,-0.025492969698540327,0.5019533577449051, 32819000000, 
-0.04632699451373447,0.12155666036097139,0.5152513419445766, 32824000000, 
0.017395663647290026,0.28687650319174446,0.5167260585194451, 32829000000, 
-0.16155047911609863,0.04334424454695073,0.4854196185575454, 32834000000, 
-0.0404886911765424,0.11614089415269577,0.5074150231404803, 32839000000, 
-0.014211690569301591,0.03174298889299128,0.5146627494201561, 32844000000, 
0.2609187576350877,0.12093861856761742,0.4874500022557057, 32849000000, 
-0.09668939428246837,0.14158237625642348,0.5035993592434729, 32854000000, 
0.03325101643574473,0.26126233239983426,0.5118445788578753, 32859000000, 
-0.17132036170770307,-0.006173803730647248,0.5040624864114376, 32864000000, 
-0.0634715210537648,0.13004500284256765,0.4880138366970595, 32869000000, 
0.08818954618105913,0.29328777904043546,0.48649230098914353, 32874000000, 
-0.22833320653734215,0.022151125891779803,0.501191549695304, 32879000000, 
0.2830915816506159,0.1706853041398703,0.4945455682430367, 32884000000, 
0.09075216366214801,0.2200846590432208,0.502074855386055, 32889000000, 
-0.2019726193678396,0.002360280626563578,0.5088254752073077, 32894000000, 
-0.08562341545602911,0.11914672004771287,0.49355266865098907, 32899000000, 
0.07922433409578936,0.2183630304315653,0.49554796422605857, 32904000000, 
-0.1539166796729996,-0.0008734208625301651,0.5016657959051726, 32909000000, 
-0.08973475071457859,0.07100429095340105,0.5023060990598334, 32915000000, 
0.07221149394719256,0.3010063891053481,0.4935320966616003, 32920000000, 
-0.17975342631528884,-0.005991583329709291,0.4948903288588, 32925000000, 
-0.02947215784558846,0.08794232413408351,0.5104850485386639, 32930000000, 
0.011793984366736248,0.27739029830298545,0.5024362622601163, 32935000000, 
-0.22512872744121987,0.005435885832958315,0.5072849568140536, 32940000000, 
-0.013926272095178029,0.15290505952748634,0.48666735516857534, 32945000000, 
0.38608990672583804,0.22111425573005436,0.5162048472377108, 32950000000, 
-0.17233938140585062,0.008749290508861682,0.4832800226309005, 32955000000, 
-0.04835624841478796,0.11167619826851691,0.5058389435653186, 32960000000, 
-0.029892578135044832,0.0840484889770742,0.4976800363495994, 32965000000, 
-0.13963327360831818,0.186954281148053,0.502990537602906, 32970000000, 
-0.062239429977367214,0.05365272110111583,0.4979823829144167, 32975000000, 
-0.02032128292557238,0.09674844581471956,0.4952108467331549, 32980000000, 
0.40801465746397986,0.25185355727994835,0.502124237817534, 32985000000, 
-0.12284495747184934,-0.03580618820546465,0.49268707007380474, 32990000000, 
-0.030225748772951328,0.22437330750869094,0.4888682926736212, 32995000000, 
0.054259294384047425,0.27466713830000916,0.46458097949494354, 33000000000, 
-0.23793164315990242,0.06365129505089506,0.49805648373789263, 33005000000, 
-0.01425940136198665,0.13461918574310514,0.48358240571791244, 33010000000, 
-0.0760404444528288,0.1112380173622935,0.5004714423716663, 33019000000, 
-0.12377165757346864,0.15164165271889235,0.49889671547128994, 33024000000, 
-0.06364570669051818,0.16322720250000655,0.49958401516731227, 33029000000, 
-0.10027868072124821,0.17963424679904696,0.502307610622192, 33034000000, 
-0.049539250970932015,0.06899930634274784,0.5138067087883749, 33039000000, 
-0.024611681362817703,0.1474944085443175,0.49042227997291243, 33044000000, 
0.05171419693123974,0.2706574498484762,0.4998739990257574, 33049000000, 
0.13872741914385767,-0.0604960263995079,0.4996397952203405, 33054000000, 
-0.08016772806598457,0.12458181463167087,0.5075761721647667, 33059000000, 
0.09705757596217271,0.24957180267370835,0.5032091929524466, 33064000000, 
-0.14342568067702294,-0.07366881956087451,0.4987187816602747, 33069000000, 
-0.04039809751730107,0.12077911463368261,0.497576068846724, 33074000000, 
0.06416333033490997,0.32930420705291596,0.4975618002675706, 33079000000, 
0.10747539451547794,-0.09101536232539621,0.5000285605720999, 33084000000, 
0.03265955174681001,0.20121341765516923,0.507756238977115, 33089000000, 
0.016237996710570052,0.29790010666003064,0.49127078057822515, 33094000000, 
-0.12468982112605774,-0.05196767845410309,0.5137361731877768, 33099000000, 
-0.026615851746523735,0.15724788705130152,0.507455299418954, 33104000000, 
-0.08479283174108192,0.14377892357875852,0.48153412955784597, 33109000000, 
-0.02771598652030526,0.11483378357526525,0.4891910031024315, 33114000000, 
0.04732839225104813,0.2535010938873948,0.4949190102240419, 33119000000, 
-0.20292657935277095,-0.014155501635389655,0.4974587945077387, 33124000000, 
0.01856962230341001,0.05759915199447713,0.48965600833045225, 33129000000, 
0.008079967493941166,0.23368310342075144,0.49565559391985187, 33134000000, 
-0.17348880205548098,0.00872682219198577,0.48809458421331536, 33139000000, 
-0.0674509748649308,0.16232072626864258,0.497479856994658, 33144000000, 
0.04547881124056529,0.2677200221123604,0.5019080708830177, 33149000000, 
0.2507859221350948,0.04835589759903459,0.5036505408924308, 33154000000, 
-0.08689123177305785,0.11228831196014022,0.5002579836229871, 33159000000, 
0.08843148413902771,0.3304454819521982,0.4975126384724053, 33164000000, 
-0.13157640115634814,-0.061422290531079095,0.5074040693706074, 33169000000, 
-0.018744493323460974,0.11103909835432198,0.49578486912281144, 33174000000, 
0.07265092084994296,0.29285543617310617,0.4881382839000765, 33179000000, 
-0.1387981908205296,-0.007611381015661918,0.5117702763667247, 33184000000, 
0.2852046404271674,0.2620593726449081,0.5081930345661521, 33189000000, 
0.06805299256121833,0.24644487961754893,0.5149359129094158, 33194000000, 
-0.1651079747142511,-0.11789700512146839,0.47957829408732183, 33199000000, 
-0.12617333570237277,0.12614522177588916,0.4779694524070545, 33204000000, 
0.05485934632297299,0.30447966935718074,0.5001302922586596, 33209000000, 
-0.1954193137620513,-0.0845557621084223,0.49491185488593525, 33214000000, 
-0.08879051405532817,0.10656289989106427,0.4937119840519779, 33219000000, 
0.012365950733700011,0.27942958268625245,0.49115660356212326, 33224000000, 
-0.20272960437597473,-0.026785346559558484,0.49411642311214515, 33229000000, 
-0.023021620250324545,0.14631814195261605,0.5060563788771302, 33234000000, 
0.1428155038220851,0.2639768022470828,0.4950572659847683, 33239000000, 
-0.1555331125055202,-0.07765235274086166,0.5129791411703055, 33244000000, 
0.0041379843377483475,0.16210484908048328,0.5170868455716999, 33249000000, 
0.3389068674191005,0.2262108091619127,0.5094655156087262, 33254000000, 
-0.11495296356935959,0.040768683938810585,0.5106454789578241, 33259000000, 
-0.07289887578926639,0.10744599120397394,0.4997738742652653, 33264000000, 
0.12707636407386577,0.23712492362731766,0.5031736971014497, 33269000000, 
-0.1406022774975726,0.04779777113074833,0.49472370626997075, 33274000000, 
-0.046983201856853785,0.09955458414875022,0.4908212016936745, 33279000000, 
0.0668139891399963,0.28675451685180686,0.4964239369033604, 33284000000, 
0.08711569876776369,-0.07128221923081249,0.5002792984043756, 33289000000, 
-0.004950831694718369,0.09462887835443998,0.48519174327777326, 33294000000, 
0.038999990251612555,0.27646086572199796,0.48867270624099013, 33299000000, 
-0.1641623570605073,-0.053462763350977674,0.4909443922798787, 33304000000, 
-0.06601437611132924,0.1656662518489245,0.48398686603281277, 33309000000, 
0.03880524894178118,0.23707004442942733,0.4908323089801872, 33314000000, 
-0.2628423543008452,-0.08624507487561545,0.49653288478625146, 33319000000, 
-0.07698045504505041,0.15950590358011324,0.4858478696051173, 33325000000, 
0.07939944649557858,0.2763773370573812,0.4981492165827771, 33330000000, 
-0.15109896966574674,0.04174903751665279,0.5094363546035264, 33335000000, 
-0.03751834708765026,0.1257446164485615,0.500579580713169, 33340000000, 
0.06730202765683353,0.3461919642737725,0.49719907483693004, 33345000000, 
-0.20241266979296457,0.006580428569344023,0.4884349504410747, 33350000000, 
0.009835720803494541,0.08625144124761314,0.5065229434919326, 33355000000, 
0.41703728737348267,0.22157254134693283,0.4890414216483202, 33360000000, 
-0.20426524100745538,-0.08464726183947914,0.49990899699084246, 33365000000, 
-0.014696655068427378,0.21140232102313844,0.513441552682049, 33370000000, 
0.07590670850334241,0.24606250585194128,0.4970658249906006, 33375000000, 
-0.14837887704165376,0.0076613782319875125,0.4798477359579158, 33380000000, 
-0.010447387707201477,0.08382787490875533,0.5064425202939425, 33385000000, 
0.34942784814869704,0.29746471024383014,0.511328471293547, 33390000000, 
-0.12732092898921055,-0.001792481449916547,0.4966749062743428, 33395000000, 
0.00461932728455108,0.2020017414205708,0.4913102892068236, 33400000000, 
-0.05584833747172887,0.16586890355578066,0.5032602324543023, 33405000000, 
-0.07858902838789393,0.07840849994095395,0.5053056419684941, 33410000000, 
-0.024923857068997374,0.19112126649357952,0.5057963827691452, 33415000000, 
0.04420763731214515,0.2509439979845571,0.504630872136687, 33420000000, 
0.1769969870030403,0.024182856836036163,0.4924794078939669, 33425000000, 
-0.06502498347387231,0.16222393266489935,0.5106842275180208, 33430000000, 
-0.14139331306317673,0.07272152152267691,0.5071488435440104, 33435000000, 
-0.0513786112491942,0.10372611318313041,0.4909793514420437, 33440000000, 
-0.04712077832230589,0.13424056696031744,0.4954961578098556, 33445000000, 
-0.03907388138246115,0.18633786118214385,0.48136695782742495, 33450000000, 
0.054719805092493704,0.24797859076637982,0.4918826567743096, 33455000000, 
-0.13975366808354533,0.080091766209668,0.5190485531694577, 33460000000, 
-0.0033102536571048002,0.13252566150545889,0.5096168518453507, 33465000000, 
0.08871154002788749,0.260245371385873,0.5038300127892384, 33470000000, 
-0.2048629912123205,0.08441288924653381,0.47853946604726727, 33476000000, 
-0.09092401624170715,0.255233943358815,0.5038705534577952, 33481000000, 
0.013847999323485204,0.32297808293110414,0.4824735817269883, 33486000000, 
-0.1852179155602145,-0.06641733675151967,0.503772388255944, 33491000000, 
0.25247493211514205,0.16689301025322578,0.4917857675111689, 33496000000, 
0.06933897730847016,0.20676582294025359,0.5000588910563899, 33501000000, 
-0.18260634738952483,-0.06356860281018152,0.4885938073058335, 33506000000, 
-0.034951563488677215,0.21315450697576283,0.5028479778792054, 33511000000, 
0.02201823186156108,0.24507970090657685,0.4927674366718912, 33516000000, 
-0.2083886732402272,0.04934918588670664,0.5008967823774217, 33521000000, 
0.2585292682493885,0.1163645211259163,0.4910611561759372, 33526000000, 
0.11564624547010899,0.14572926350001836,0.492613771079803, 33531000000, 
-0.10172670094950903,0.16881832872802804,0.49649017102999565, 33536000000, 
-0.04814383001290384,0.16974549602339462,0.4964655889350668, 33541000000, 
-0.057248157093340614,0.1314681789028262,0.496674986005814, 33546000000, 
0.033430934531691034,0.30725972382436195,0.49398821506818774, 33552000000, 
-0.1547498191806599,0.011478297043112741,0.5055894026967054, 33557000000, 
0.33120921651615126,0.12162161474911534,0.49386441481977156, 33562000000, 
0.03442912380813813,0.2539106531814828,0.5004584785446106, 33567000000, 
-0.21593149776543724,-0.05317924380726329,0.48884593083342515, 33572000000, 
0.0029855250960358105,0.13713006738920427,0.5114349139109201, 33577000000, 
0.012524340448782617,0.36264658060251237,0.48418696117680454, 33582000000, 
-0.20782671742834724,-0.033470579209839035,0.4915001323461195, 33587000000, 
-0.04446997806323063,0.10349572870322975,0.49318003004388294, 33592000000, 
0.0006332463505917124,0.32717623906788634,0.48109422053835765, 33597000000, 
-0.13476175351536462,0.047090929723948224,0.4890629917535176, 33603000000, 
-0.05455994606032841,0.10270795313158365,0.48654481671025984, 33608000000, 
0.05144774709214996,0.21275662185049943,0.5032408940237765, 33613000000, 
-0.22540030165646058,-0.018589357607759215,0.4936990687378106, 33618000000, 
-0.027775460496380036,0.19066412611901673,0.513256748278283, 33623000000, 
-0.06999548372687649,0.19985782739344898,0.5039598585636919, 33628000000, 
0.2562576702468008,0.04786290931804874,0.5027102927891925, 33633000000, 
-0.11746743924892145,0.173165216385625,0.5047557134554289, 33638000000, 
-0.01981022132167958,0.22179370005682614,0.5125175950486087, 33643000000, 
-0.03977288666494953,0.1689590847007258,0.4979065734164716, 33648000000, 
-0.03126731183856711,0.07611000320199326,0.5002359534424472, 33653000000, 
-0.0397189221100938,0.139150068671405,0.4873101709086642, 33658000000, 
0.372958378003705,0.20812656123028508,0.4935415194772791, 33663000000, 
-0.13582524962045947,0.016331395835123698,0.4899737509260585, 33668000000, 
-0.08412667643659477,0.22638720006563917,0.5027167193937511, 33673000000, 
0.11400447782434309,0.26159436060020463,0.49498510312463395, 33678000000, 
-0.18387335717625472,-0.012578857450549475,0.5045909864197166, 33683000000, 
-0.045504429711210104,0.2127410434605743,0.49349017062051, 33688000000, 
0.001318029445836151,0.2754480247176618,0.4952186978616971, 33693000000, 
-0.18093455801081235,0.012009609845112616,0.5044833280731611, 33698000000, 
-0.010537612895417554,0.12798300623539838,0.5124246485509927, 33703000000, 
0.08710819223872372,0.2132693571727734,0.50308496712686, 33708000000, 
-0.11524840251554011,0.07525722284195119,0.4868258949915928, 33713000000, 
-0.025062371591731754,0.12532204819062961,0.5097688803534179, 33718000000, 
0.0074106540130061405,0.2531580990628404,0.5052315483439278, 33723000000, 
-0.1957245049970035,0.019435754277705296,0.5072238944526343, 33728000000, 
0.24556940688627305,0.07856035795576839,0.5027645457022076, 33733000000, 
-0.07074842395295547,0.07310647704610401,0.4918379975413511, 33738000000, 
0.00018184589030661308,0.12696523407822433,0.5048428870937232, 33743000000, 
-0.03807458090734451,0.054437827063503266,0.5348532846030353, 33748000000, 
-0.0347602728630049,0.14354445989681516,0.5038922724394242, 33753000000, 
0.08729046341031177,0.2662511383004624,0.5019667743862775, 33758000000, 
-0.2521592238598896,-0.004653557596755141,0.4883871046428664, 33763000000, 
0.2474208299304943,0.09608508326729033,0.5043587523691372, 33768000000, 
0.13610839149930648,0.3180771235994633,0.49529942250104875, 33773000000, 
-0.18176099052688136,0.020967846947487784,0.5012954370121476, 33778000000, 
-0.05335572788600619,0.1814035231102859,0.49484227997292624, 33783000000, 
-0.03722287594070946,0.28394877990429107,0.5069908117461949, 33788000000, 
-0.13439278755364062,0.0463778294733478,0.5083095188049874, 33794000000, 
-0.09180327967779689,0.21052146899025076,0.4809133236910614, 33799000000, 
0.023575522132673683,0.3205799125755243,0.508930170903328, 33804000000, 
-0.1345732057542596,-0.06211337289508493,0.5165521561500199, 33809000000, 
-0.08782709144399886,0.14951775940027526,0.4962752233240474, 33814000000, 
0.06822356763554716,0.2517108595276277,0.4889565014167017, 33819000000, 
-0.15089875048672916,-0.01557933597577937,0.5210763760371124, 33824000000, 
-0.042637198838607726,0.06726070099360713,0.5209365496382606, 33829000000, 
0.4269694171479993,0.3112385549242529,0.5147531127730225, 33834000000, 
-0.19648603445386298,-0.017363225478874898,0.5006372256259493, 33839000000, 
-0.04874416105119004,0.18727536392597322,0.5043305915854809, 33844000000, 
0.011500602121812739,0.34326366030521555,0.4980606053162081, 33849000000, 
-0.2122140514012107,-0.031809911007515894,0.500144344762385, 33854000000, 
-0.05160569478183445,0.14588914983420637,0.5123391511976735, 33859000000, 
0.02088318438236071,0.3881700348783833,0.5124756931561175, 33864000000, 
0.10876751807340836,-0.0023219565583927717,0.505523737454647, 33869000000, 
-0.05866139081795286,0.1312439630552425,0.4982882086939652, 33874000000, 
-0.06881924787822241,0.13758838390697803,0.4830023247798996, 33879000000, 
-0.05600781946438563,0.21561486523067852,0.5148800531440109, 33884000000, 
-0.06222590691152522,0.16715934803334703,0.4865223533597861, 33889000000, 
-0.024626458838413037,0.19632086560768505,0.5149428325277412, 33894000000, 
-0.057116821932115674,0.14908367501472808,0.5060942590291009, 33899000000, 
-0.054717893280698864,0.14455014027303698,0.4926852948432238, 33904000000, 
-0.09965061596471994,0.15894405276829002,0.5060172110262567, 33909000000, 
-0.04159904115597906,0.04896699753771125,0.510727084086998, 33914000000, 
-0.10730835647941847,0.04906549269588756,0.49738644913909763, 33919000000, 
-0.08100385927632767,0.13687926309918952,0.49199722142220537, 33924000000, 
-0.09601411090693078,0.10964785546866025,0.4803588456479448, 33929000000, 
0.2341093456173328,0.18272472726257316,0.5043538985356338, 33934000000, 
0.1492393233871019,0.2856107042930013,0.5111077225202846, 33939000000, 
-0.18991697336426117,0.010329843788654921,0.5076426644765945, 33944000000, 
-0.03248189741579381,0.1168306376448339,0.5097959934918016, 33949000000, 
-0.019096501757104107,0.11894525945023651,0.5043519927710188, 33954000000, 
-0.03518263563072328,0.15478492274720007,0.48854390457413666, 33959000000, 
0.05862373388545531,0.31252070742179006,0.5011271032868467, 33964000000, 
0.1593144031580716,-0.05477353276343463,0.4775135383322734, 33969000000, 
-0.05086955034489142,0.21404779805566546,0.5147945492950766, 33974000000, 
-0.0011684692946737907,0.3369802313617386,0.478197848643967, 33979000000, 
-0.1413715204302959,-0.08794062530519103,0.4961123279833943, 33984000000, 
-0.008156555167992095,0.11887526967371696,0.4998933563913482, 33989000000, 
0.1329121597358416,0.2969375404748417,0.512617938603923, 33994000000, 
-0.16854766518998388,0.09479634303601779,0.501414824983423, 33999000000, 
0.24206400333909614,0.18053311052020757,0.501226234752631, 34004000000, 
0.08057704322006685,0.3640986845731745,0.4925361373925167, 34009000000, 
-0.24180931380314652,0.058731389026685885,0.4976632567287596, 34014000000, 
-0.0701398901869327,0.17063933150195307,0.5039367058708148, 34019000000, 
-0.03411476943484863,0.06729283814723687,0.49614712095020874, 34024000000, 
-0.11740964596033573,0.132884687610032,0.4950812047156574, 34029000000, 
0.06948964091012239,0.32198488903925004,0.48882043961055066, 34034000000, 
-0.164175794539229,0.03593026675980528,0.4918837069361621, 34039000000, 
-0.06889598957599662,0.17997279948657555,0.5243701946270084, 34044000000, 
0.11999097353909322,0.29076656708825016,0.5036770336555851, 34049000000, 
-0.18957820715280008,-0.047105129590380046,0.48096423123289506, 34054000000, 
0.04565184513267008,0.269957847795629,0.5042586701843029, 34059000000, 
-0.16128253241972582,0.007413594674931555,0.486567868585915, 34064000000, 
-0.019137329504930488,0.139758777263331,0.49463044803068684, 34069000000, 
0.4175417480516417,0.38554368472163947,0.504850838943282, 34074000000, 
-0.17312841708968954,-0.010645659199842727,0.5033871565922776, 34079000000, 
-0.07536606391383516,0.06528271085455034,0.5057731593672038, 34084000000, 
0.0010219344291119287,0.23359011247550482,0.5180655358389913, 34090000000, 
-0.17136295398762727,-0.0069074419669245745,0.4828258680568013, 34095000000, 
0.06841577466857884,0.3167264432461929,0.5020938015585599, 34100000000, 
0.11751233339077705,0.025222394399044647,0.5041671286073481, 34105000000, 
-0.06929859461834359,0.15661985170443893,0.50604737561219, 34110000000, 
0.1303476740108512,0.3589496831112054,0.4837364884026196, 34115000000, 
-0.15409489168918153,0.07121191161393589,0.506515090162205, 34120000000, 
0.07695769891728876,0.3119016921484896,0.48748351936698964, 34125000000, 
-0.14008835933042263,-0.03841817975827548,0.4866048550819362, 34130000000, 
-0.08529744232749471,0.12796596540948021,0.512715781966681, 34135000000, 
0.025550938706932043,0.3358961691379967,0.5046811123264072, 34140000000, 
-0.14074538406242998,-0.05856207292697917,0.49152369894268244, 34145000000, 
-0.07708325224788116,0.16516126324682445,0.5272584455691309, 34150000000, 
-0.01094866836423112,0.15637615976601377,0.5109372536452631, 34155000000, 
-0.05056050619109433,0.12144623341237543,0.49917683126339557, 34160000000, 
0.08993003277614867,0.33804616128908527,0.5003249788203838, 34165000000, 
-0.17732562938590707,-0.09232134844371702,0.4920215499394875, 34170000000, 
0.2663662670773682,0.1164797608629841,0.4935256871125739, 34175000000, 
0.03405624075267431,0.37921313912500465,0.4867491866229485, 34180000000, 
-0.19747697025524705,-0.11785855233694136,0.49929507476602075, 34185000000, 
-0.05733983145010633,0.12020926442739367,0.5031988655586893, 34190000000, 
0.12141645614656096,0.42237235391186995,0.5034184509758236, 34195000000, 
-0.20918817461917774,-0.06711977210666514,0.4939374778251755, 34200000000, 
-0.07087586443168639,0.14615780547063117,0.4997969357834661, 34205000000, 
0.3605791921972402,0.30699740179625756,0.4953976318245536, 34210000000, 
-0.18412895466461074,-0.03515372156081313,0.5087625255760958, 34215000000, 
-0.13854953300894995,0.18771239733648679,0.502514659781079, 34220000000, 
0.09925218909436824,0.3729318969531153,0.4939389394958466, 34225000000, 
-0.23513152171233495,-0.1043596434396856,0.5099269472669724, 34230000000, 
-0.03875097740048399,0.14102293130873642,0.49932493114393356, 34235000000, 
0.039446200269853744,0.363978418070464,0.4888096851503153, 34240000000, 
-0.1778757048289697,-0.032490596454116075,0.48935503597823915, 34245000000, 
-0.05580796063263208,0.16977210751729055,0.5221242929962329, 34250000000, 
-0.012419518019492856,0.08667378991074147,0.5027427126166325, 34255000000, 
-0.10726426790214638,0.0986634415125339,0.4878087245958685, 34260000000, 
-0.06615008641946345,0.23195448498100268,0.522689588935611, 34265000000, 
0.07463471811187783,0.27341052133053356,0.4969383671613255, 34270000000, 
0.17720807738869648,-0.10202685998333061,0.5053525982364854, 34275000000, 
-0.07306684438686052,0.22694083529817222,0.4893127529686419, 34280000000, 
0.09768378126279864,0.33307241099859947,0.4866069846186346, 34285000000, 
-0.14061605262495686,0.011297835542748318,0.4769683760894053, 34290000000, 
-0.06328557872035087,0.1474821234590052,0.4917434582855728, 34295000000, 
0.09448187239297517,0.37186005286879814,0.4915572932182522, 34300000000, 
-0.17567541869220557,-0.0416172228252104,0.5118968896929875, 34305000000, 
0.20891995123703333,0.18797833313576545,0.5248214931052033, 34310000000, 
-0.07217688121687657,0.1542389275053346,0.4979811504237663, 34315000000, 
-0.09275379502219509,0.11231120695917142,0.48585425828539647, 34320000000, 
-0.003001325668981432,0.18699219878852266,0.497368038189984, 34325000000, 
-0.04553151112355035,0.19051417567948994,0.5019747173512928, 34330000000, 
-0.1080182654138169,0.12210217741373743,0.4956123267606921, 34335000000, 
-0.02964298745615257,0.18621670150422392,0.4918415119268791, 34340000000, 
0.4120515678196728,0.3369643884955219,0.49837894144043293, 34345000000, 
-0.09264793717301283,-0.08544389413209937,0.5161753159756193, 34350000000, 
-0.024622135905877342,0.16634129286292745,0.5068213343569307, 34355000000, 
0.06327679427811142,0.2583522831332356,0.5176603881141622, 34360000000, 
-0.2160362315178593,-0.08615058474815895,0.5192943688023683, 34365000000, 
0.0302409623806357,0.10078899004888302,0.5023973692927914, 34370000000, 
-0.07990505063553216,0.1731119395914144,0.48886347436919514, 34375000000, 
-0.0016938980469131115,0.2653975450702728,0.5149672262475373, 34380000000, 
-0.23267739285502603,-0.1367674971729949,0.49299389698633134, 34385000000, 
-0.06449502213915499,0.10450776385344561,0.5062308220745695, 34390000000, 
0.06406787515827969,0.35627268139089624,0.4965764071961422, 34395000000, 
-0.1653242696869045,-0.0186737929433399,0.5072325217449355, 34400000000, 
-0.08713807136404239,0.13883870015764316,0.4904582682856153, 34405000000, 
0.3471734771790137,0.39015792160621043,0.49744879653630153, 34410000000, 
-0.12767247793218983,-0.05727229699864063,0.48974093908456, 34415000000, 
0.011499742261924802,0.12917134184948978,0.4962765377246334, 34420000000, 
-0.018278062555196914,0.24993093270269248,0.47324752609933185, 34425000000, 
-0.10759599568842937,0.11129758226922996,0.4948400398501744, 34430000000, 
-0.09266389322036356,0.13530680464352035,0.48855275579042334, 34435000000, 
-0.06976567191022674,0.1873700690383037,0.49052442965826554, 34440000000, 
0.26837287977056823,0.2300066879460492,0.4955531967027751, 34445000000, 
-0.03468229792873169,0.16599162100959466,0.5083487221390662, 34450000000, 
-0.009430053279001017,0.14902479257566395,0.49235279059173886, 34455000000, 
-0.07513049664345853,0.13709470498250081,0.5032968448181889, 34460000000, 
-0.05259471345954635,0.2128913499485165,0.47756133769904113, 34465000000, 
-0.07485034089973433,0.12065171294928442,0.4998966842618295, 34470000000, 
0.08244343731261364,0.37014688224497483,0.5019245855742369, 34475000000, 
-0.22503054755292884,-0.023835546375010265,0.48481322818674655, 34480000000, 
-0.04194371423637649,0.1457575748999268,0.48778933972608435, 34485000000, 
0.1277341894469498,0.40217803271654656,0.4705298894435008, 34490000000, 
-0.26645953687116086,-0.09469736923402683,0.510994343212158, 34495000000, 
-0.09664761757574175,0.2186989384320358,0.5038511812629778, 34500000000, 
0.0670975588418609,0.35539585200718105,0.4937112373651352, 34505000000, 
-0.17926895235805806,-0.04373946314552764,0.5070165216599849, 34511000000, 
0.24086490086601547,0.186016312133647,0.4929651039170151, 34516000000, 
0.05233927653748943,0.28297813713268694,0.4937931770387964, 34521000000, 
-0.2229625703955878,-0.06137633172419341,0.48514538677606145, 34526000000, 
-0.08253608371914933,0.1550326803958104,0.49010464962730477, 34531000000, 
0.07291567253895119,0.4456963001872238,0.502962086271904, 34536000000, 
-0.2638814330185817,-0.0006443673010125966,0.4884153301860162, 34541000000, 
0.17823705013660865,0.1828838468398565,0.48872462262426053, 34546000000, 
0.15477426347334367,0.29862081271146346,0.506643494083156, 34551000000, 
-0.2010100803281968,-0.014716688585813084,0.48647835474448964, 34556000000, 
-0.03443214885176723,0.1406924328002725,0.5088867104976997, 34561000000, 
0.01151537441515603,0.3178029702215704,0.49341995588364335, 34566000000, 
-0.15492787250085696,0.030913219631307044,0.5016792209163574, 34573000000, 
-0.02138763900655738,0.1699588077552049,0.5006069649375576, 34578000000, 
0.38515132840107075,0.34943800622963855,0.49246720994707005, 34583000000, 
-0.22987390204298647,-0.02216816810137468,0.5049769751712524, 34588000000, 
-0.026577642194011094,0.12228398376538147,0.4969638158331877, 34593000000, 
0.07486201501961598,0.33207049259755966,0.496243690515842, 34598000000, 
-0.21698196404213393,-0.07355616835896815,0.5183276177767429, 34603000000, 
-0.008983822841905856,0.16566637575693435,0.5126156300274408, 34608000000, 
0.10005811634294814,0.34702499993149544,0.48064952915462383, 34613000000, 
-0.2634546505288797,-0.1473729751779417,0.49440006456516805, 34618000000, 
-0.015099282187641443,0.19417277511357636,0.4841239081735685, 34623000000, 
0.03005802341382508,0.29231377302491657,0.5050168894131979, 34628000000, 
-0.08559074823355331,-0.000536683699664104,0.47797695158378983, 34633000000, 
-0.06565498975357825,0.2062134194243408,0.4963301955618504, 34638000000, 
0.017905373793209126,0.31450539105323033,0.5079276809087928, 34643000000, 
0.07359583792098251,-0.09039635553899164,0.5028078696969344, 34648000000, 
0.02978329012818893,0.18920651445828648,0.48952405740125293, 34653000000, 
0.030105119095959868,0.3512844044679107,0.5050441158321446, 34658000000, 
-0.14831011917175868,0.0219222291397956,0.46740881967803805, 34663000000, 
-0.0805871511119277,0.230902939045431,0.5166331636402605, 34668000000, 
-0.05980237325687088,0.09704886716695807,0.4962771931615789, 34674000000, 
-0.024813060827064,0.12433724651586989,0.5016906554501923, 34679000000, 
0.2279921085259416,0.18177780188667536,0.5099865987823589, 34684000000, 
-0.012861685409479384,0.12091259824032363,0.512124619918812, 34689000000, 
-0.03445373539037014,0.1501265942131092,0.5116824543616058, 34694000000, 
-0.07271452339954206,0.17598242676835718,0.4898094103477126, 34699000000, 
-0.062083592817197386,0.1547664319391858,0.48479953524085534, 34704000000, 
0.1173336881825194,0.29430334488514903,0.507992091181205, 34709000000, 
-0.13082019530097216,-0.07451056152389175,0.4842303703061954, 34714000000, 
-0.03532655605158644,0.19465388764423996,0.4973606820475082, 34719000000, 
0.04543939374409149,0.27630901848033,0.5007265902564659, 34724000000, 
-0.18641607068477709,0.04517884869310427,0.5076600307004737, 34729000000, 
-0.11533707204056474,0.10804586770776062,0.4892164946165307, 34734000000, 
0.0628099517429244,0.3154798542844714,0.5045379493370543, 34739000000, 
-0.20862372382120092,-0.02323347327438985,0.4888697171823089, 34744000000, 
0.17005376706870698,0.1916267086894193,0.47944316047303587, 34750000000, 
0.10102847680950051,0.3165457420289446,0.5023314672334116, 34755000000, 
-0.16411655323284935,-0.016020823604493084,0.50017329546612, 34760000000, 
-0.10163758854414835,0.20790751319530393,0.4763589890082939, 34765000000, 
0.04129454300713892,0.3024061866479122,0.5009321448307331, 34770000000, 
-0.14466266104592537,0.010728289767766234,0.5067669318897488, 34775000000, 
-0.09137840354248605,0.20392926498833092,0.5155756473519825, 34780000000, 
0.2648999953447679,0.22245827413878722,0.5114079154722536, 34785000000, 
0.08323655520622762,0.19350076679652178,0.5104379891223271, 34790000000, 
-0.048747965207696586,0.1874356608838758,0.49290092815047987, 34795000000, 
-0.0051442047955443,0.21640793698401076,0.5171424869007905, 34800000000, 
0.014374471428090962,0.2082048401852623,0.48905398582892384, 34805000000, 
-0.08873010369668569,0.13367640050978533,0.506986899448537, 34810000000, 
-0.023951439815626238,0.2050902753402389,0.5100709039578115, 34815000000, 
-0.03917305910631349,0.12697595626899863,0.4893069250223818, 34820000000, 
-0.11258457336491096,0.11670733595235308,0.5226559495088512, 34825000000, 
-0.047863847173558884,0.15989506978063356,0.4816629721639518, 34830000000, 
-0.027036631452633988,0.10854868104113417,0.5023182621976002, 34835000000, 
-0.023075125139934885,0.14827684038396405,0.5113138272243952, 34840000000, 
-0.001535704326179374,0.21186562035746956,0.5062006253381733, 34845000000, 
-0.038072650518716736,0.10247066502948962,0.4898743593640437, 34850000000, 
0.25110092134232787,0.13032396582936498,0.49307325628703336, 34855000000, 
0.051257774680237386,0.3187884735855116,0.5120774178881438, 34860000000, 
-0.15744805594397127,-0.002578314083788783,0.49952507911665195, 34865000000, 
0.0006550571639334368,0.23081700930536975,0.5022691578237083, 34870000000, 
0.0960323303097734,0.29911821505257113,0.48258579531397344, 34875000000, 
-0.16530957513731287,0.06467076510627559,0.5134407467489195, 34880000000, 
-0.02077915096970064,0.15961233348525147,0.4929406439415573, 34885000000, 
0.2526866959811598,0.27287456986080527,0.49975193183887817, 34890000000, 
-0.16009214768211288,0.0818347751429494,0.5002096421192272, 34895000000, 
-0.008810549401118254,0.10593890549535737,0.5111255506549208, 34900000000, 
0.09891202279595177,0.31784429953348664,0.4893634995499805, 34905000000, 
-0.2205354072864711,0.00460886593753157,0.488226311825106, 34910000000, 
-0.004074949417323271,0.14647056539375503,0.5045683612701855, 34915000000, 
0.22050157778559745,0.07041860106614078,0.5205517703571111, 34920000000, 
-0.005174403502947721,0.16080611681297052,0.5012097740246527, 34925000000, 
0.05626416839804738,0.29347026445792135,0.5021740803497302, 34930000000, 
-0.14389711069103664,0.016300182995103083,0.5028386878646148, 34935000000, 
-0.01956369602067223,0.22299064192681703,0.5121822763661046, 34940000000, 
0.06793578551306206,0.32555742857750414,0.5250663328411562, 34945000000, 
-0.13317799098147753,0.08472092894713426,0.5066269063898422, 34950000000, 
-0.06620162387429449,0.21015712214763077,0.503885277015165, 34955000000, 
0.06928201715113394,0.2669873919902727,0.5078775608423816, 34960000000, 
-0.20703295283518391,0.01130348934551785,0.5043842070934251, 34965000000, 
-0.061140213964947634,0.1511892527477155,0.5007878452294269, 34970000000, 
0.012866777144156134,0.2007932276517757,0.4843965529965131, 34975000000, 
-0.13889389857712786,0.07735704646965597,0.4885048013002601, 34980000000, 
0.01767527890547977,0.3105994748361825,0.49282664125498205, 34985000000, 
0.21554615491864326,0.056634339529263625,0.4943700430150613, 34990000000, 
-0.01873168370910252,0.17866355721125118,0.5024749385061503, 34995000000, 
0.025073156947995917,0.23035264974744846,0.4997367989522436, 35000000000, 
-0.22240179590897863,0.043594432940664535,0.5059029444875005, 35005000000, 
-0.05936459274816299,0.23803647985873358,0.5102164609265345, 35010000000, 
-0.01113340441361288,0.27249291420112637,0.5040413402206085, 35015000000, 
-0.17229026958486796,0.012442141790530522,0.48423122826354453, 35020000000, 
0.372999145939385,0.1869205563000347,0.48607279211980614, 35025000000, 
0.015832426605261483,0.23084957600331585,0.5132126724196088, 35030000000, 
-0.19107499235273534,-0.010308812049903686,0.4745038939980842, 35035000000, 
-0.031067254732636197,0.22859724572816253,0.5085575536199178, 35040000000, 
0.005414165840900945,0.14202795372019997,0.48152756626483634, 35045000000, 
-0.046391399264747245,0.11829295048669788,0.497547654554179, 35050000000, 
0.057529681207697976,0.32980240307225245,0.5212855548546156, 35055000000, 
-0.12271938245394308,-0.014699635895518343,0.5085079801838082, 35060000000, 
-0.031505841434956904,0.1973216793360527,0.5041597288863652, 35065000000, 
0.049692002067687153,0.29118210335667616,0.48790220262344874, 35070000000, 
-0.13853255271644116,-0.02826397814027861,0.4905189748378086, 35075000000, 
-0.0788006048838153,0.21137622711514692,0.49006834713079045, 35080000000, 
0.02453007058355642,0.25520338514611324,0.5219638947338895, 35085000000, 
0.08306939595258378,-0.013316659910342771,0.5097625410416474, 35090000000, 
0.023495436042595772,0.1841378545257322,0.4971918029068338, 35095000000, 
0.024806116821196253,0.2799676486913901,0.49122649950403274, 35100000000, 
-0.17285886817571766,-0.013363160710621866,0.4878411555015481, 35105000000, 
-0.015152085881064814,0.2183434589035418,0.4852752285460319, 35110000000, 
0.06704979760294341,0.2718822458890081,0.48940655266191724, 35115000000, 
-0.12182866192170783,0.06551986192846895,0.5079047807178847, 35120000000, 
0.29525398373277356,0.19718526192682492,0.504555742063639, 35125000000, 
0.09250501037518433,0.24669262423479832,0.5112355707687779, 35130000000, 
-0.16727232233665337,0.030661729791760947,0.4879715095838775, 35135000000, 
-0.05309665999280831,0.1083058461397594,0.4828877900775406, 35140000000, 
0.022700846555148597,0.27478576447011854,0.5107433314806213, 35145000000, 
-0.12011598158068869,0.00948669959409034,0.5031126115245882, 35150000000, 
-0.039329463666618394,0.1494652611927703,0.5044245920232923, 35155000000, 
0.24531015200526698,0.24582491468328468,0.4890764832041176, 35160000000, 
-0.076986850062181,0.20973318317208234,0.49238999740313155, 35165000000, 
-0.08675608868549634,0.20005827387035197,0.503488689481759, 35170000000, 
-0.023169093891199127,0.2174667350761807,0.4830391436243813, 35175000000, 
0.041129107551179135,0.22788702963377994,0.5154086910143676, 35180000000, 
-0.16820573264347294,0.04973981141084313,0.508392610899549, 35185000000, 
-0.011603438666547644,0.18635820838003136,0.4990504717970033, 35190000000, 
0.011882696424490524,0.25670882039992365,0.5014570684256967, 35195000000, 
-0.1364621866907647,0.11289839165445822,0.5033403293107565, 35200000000, 
-0.07050258839801404,0.11752569968755855,0.5132797406825262, 35205000000, 
-0.09199563030885818,0.18957852688783994,0.5014279577552833, 35210000000, 
-0.028359020293166365,0.17899013495395016,0.5086900250519595, 35215000000, 
-0.001227562022902761,0.17745193647526983,0.4870700671935707, 35220000000, 
-0.07127843297391176,0.08266403977864725,0.4919722648771513, 35225000000, 
0.2967418264453585,0.19738228773179103,0.5002266362366721, 35230000000, 
0.016686417339743263,0.24962912539339147,0.5027496719204638, 35235000000, 
-0.15455687924365494,0.06635074486968207,0.49519873108590395, 35240000000, 
-0.12134003955810181,0.20834897789796625,0.4833011209502616, 35245000000, 
-0.03312355361064531,0.19680838010400062,0.5084703934074463, 35250000000, 
-0.018009303068084466,0.09202637118590795,0.4975101729817462, 35255000000, 
0.1705769106186878,0.13310780801626176,0.4852456191823562, 35260000000, 
0.031989388475137256,0.20495684492673313,0.4991148431100006, 35265000000, 
-0.09287509371156019,0.16211042448749075,0.49283331457276397, 35270000000, 
-0.05696675243722285,0.21892733812655601,0.5063357407210965, 35275000000, 
0.02872761997428676,0.34344039219411704,0.4947836609453307, 35280000000, 
-0.08767604723736078,0.049883111072815886,0.5067535462847332, 35285000000, 
-0.02841073318464243,0.23304455711831185,0.5031882766394087, 35290000000, 
-0.032299384683361756,0.34141959962946555,0.49888408577050736, 35295000000, 
-0.1434026549684611,-0.01629197744696685,0.49038459209532964, 35300000000, 
-0.07623746220474821,0.20903408617660396,0.49788467660486163, 35305000000, 
-0.052193324179917885,0.20956090847402492,0.497254745191721, 35310000000, 
-0.042352272719113015,0.15555190967951618,0.5060080775460261, 35315000000, 
-0.012767381253807754,0.25912192295833286,0.5133627933045266, 35320000000, 
0.07960130165770084,0.26169318514866075,0.49220224902593873, 35325000000, 
0.15754044203646608,0.035065429321692224,0.5007695842741432, 35330000000, 
-0.05861810841351211,0.14164570640257157,0.5022185458953112, 35335000000, 
0.04041805908855804,0.1853184497815735,0.5036968821359762, 35340000000, 
-0.19261764685491367,0.03540121805625925,0.4853561477357661, 35345000000, 
-0.028459085328985292,0.20607423668633829,0.5085913854599025, 35350000000, 
0.0881962628889566,0.2797773910407154,0.4942878226141404, 35355000000, 
-0.17854475596075112,0.034771022388491654,0.5075449106514375, 35360000000, 
0.2836252653563,0.2542123449092803,0.49017590671019967, 35365000000, 
-0.0034961779387227554,0.17157154169778538,0.4853483142047473, 35370000000, 
-0.05339343171272438,0.08720614628770376,0.5009936916155028, 35375000000, 
-0.008247168374975803,0.15807121754081965,0.5104952571844167, 35380000000, 
-0.08797444514008602,0.17502216688121025,0.5003695122992872, 35385000000, 
-0.04858441511999617,0.1987968885952926,0.5073778552121694, 35390000000, 
-0.04666053987523918,0.22880661862616825,0.5196458548641536, 35395000000, 
-0.13213321555204938,0.11509647161610877,0.5237485086884992, 35400000000, 
-0.0066615573892582075,0.1978544139743426,0.5044703194390391, 35405000000, 
0.02374667015276078,0.2842283408256524,0.518187906510574, 35410000000, 
-0.17450781463537934,0.0790386068605087,0.49403904746163113, 35415000000, 
-0.09401059458566416,0.1681457198377635,0.49566445246178903, 35420000000, 
-0.009672917291180562,0.25883280842537076,0.4835071312862272, 35425000000, 
0.1396260232145278,0.10228152622242168,0.5059455419891644, 35430000000, 
0.04908230831477427,0.2692273512492027,0.4966259491377201, 35435000000, 
-0.16752954778272044,0.06711700705653867,0.48796435290110185, 35440000000, 
-0.017056677528847777,0.19767868483992246,0.49271603374294903, 35445000000, 
0.03218756819635757,0.23749036097032594,0.5166616069981296, 35450000000, 
-0.09173274960532683,0.16022206674005868,0.5033298656260146, 35455000000, 
-0.07087156957902745,0.20270679299117034,0.5153427528090828, 35460000000, 
0.35329824601856624,0.24622652801468126,0.5007278863559714, 35465000000, 
-0.1287782650787301,0.12903266532046717,0.48738543863501527, 35470000000, 
-0.06935251437590441,0.2117836090317402,0.5117618247986031, 35475000000, 
-0.0161856451126734,0.17905937978174913,0.49912816687446476, 35480000000, 
-0.05997756795469953,0.1683707783869723,0.506582537935171, 35485000000, 
0.020097809207621643,0.224524622998937,0.5024319551114788, 35490000000, 
-0.14684829067246172,0.0641685767795031,0.49552012376600846, 35495000000, 
0.31924840448894937,0.176391402992337,0.5195771154271737, 35500000000, 
0.01870277958090905,0.21708227545952208,0.49543320506073896, 35505000000, 
-0.14398359198269461,0.08868676412362565,0.49920780975618634, 35510000000, 
-0.03974123652815423,0.2295521803949223,0.49795323694553173, 35515000000, 
-0.001970639181989437,0.25269206601370336,0.47179954424589027, 35520000000, 
-0.10189702332410579,0.036184546040387934,0.5147207653792563, 35525000000, 
-0.06843652253633958,0.06330111027469926,0.493618099969474, 35530000000, 
-0.04163789441783324,0.2414956604140508,0.5087990081407451, 35535000000, 
-0.05226736277327544,0.1548987948129301,0.49654949489779776, 35540000000, 
-0.03635761388953901,0.25265547731817484,0.5065690528626838, 35545000000, 
-0.12904464879535996,0.11379282841178895,0.5092178391281382, 35550000000, 
-0.008865502284064249,0.15251548220429906,0.5016021900762923, 35555000000, 
-0.012273965309989303,0.2689793089301334,0.511770734764388, 35560000000, 
-0.11414793290666975,0.0012289119170214718,0.49558676076503344, 35565000000, 
0.33546502533034017,0.2024663701278914,0.5078297312518447, 35570000000, 
-0.009536827059076883,0.18140749014986304,0.5137289628926741, 35575000000, 
-0.1917909459567301,0.10581348055702156,0.49908299123171324, 35580000000, 
-0.029149390627491306,0.20697509210350018,0.5221115347953308, 35585000000, 
0.008804394695597989,0.2707066153154564,0.5080739956453355, 35590000000, 
-0.04034289653651884,0.05401457696485716,0.5052313119897297, 35595000000, 
0.20696954477600812,0.21561320888230306,0.5084155880055138, 35600000000, 
0.013034545268402802,0.2898379481807814,0.493646410332113, 35605000000, 
-0.09976413256621156,0.20446591454458846,0.5018991155716068, 35610000000, 
-0.00795160308051801,0.1880295699252808,0.49271444485801674, 35615000000, 
-0.006148592690517308,0.24255760442747842,0.4963167082306082, 35620000000, 
-0.10877496236085892,0.22499088839368836,0.4989383283483931, 35625000000, 
-0.028825526227324236,0.18382462339840794,0.5016236968755021, 35630000000, 
-0.06947034231057637,0.09488415292375549,0.49357125385297873, 35635000000, 
-0.041409720134521835,0.15852912100755903,0.5123854063265251, 35640000000, 
-0.04532207217357411,0.25608397371260266,0.5178195110067941, 35645000000, 
-0.05510468156314457,0.22744734892366314,0.5071690616549397, 35650000000, 
0.015234014367543,0.14387215293401737,0.4956274069307092, 35655000000, 
-0.08531921360179265,0.17544850023803543,0.48248508327186634, 35660000000, 
-0.03428435803898453,0.11643523156883324,0.5024284184335045, 35665000000, 
0.21844021539079278,0.1521347927263001,0.4893672573566971, 35670000000, 
-0.05557931340045701,0.1296760704243942,0.4873515652950858, 35675000000, 
-0.06522594698722495,0.23493345524008516,0.49365767330305654, 35680000000, 
-0.11374837230715634,0.14331394448253804,0.5035035027372418, 35685000000, 
0.010388661336363014,0.19500214373822974,0.5123018758054699, 35690000000, 
0.003567159640767755,0.2948551126463986,0.5058403533091522, 35695000000, 
-0.15382213571433437,0.15586004096451625,0.49535328146009133, 35700000000, 
0.28759046938344845,0.16770281936027445,0.4965052229834053, 35705000000, 
-0.02121501490916692,0.20890552587173863,0.49511397704516946, 35710000000, 
-0.1012134912569463,0.08804089818155987,0.5035295921413557, 35715000000, 
-0.04296521543841532,0.22875114155365173,0.48857653929961664, 35720000000, 
0.008827268948204021,0.2786007509564183,0.48985457787582365, 35725000000, 
-0.12644765558878385,0.13849453252490684,0.5035897211035818, 35730000000, 
-0.07555479503652031,0.1597725999942179,0.5095622649813208, 35735000000, 
0.35307843009463485,0.2995582893540438,0.4904681218693354, 35740000000, 
-0.11989585335184001,0.07727213311620666,0.5059800424077768, 35745000000, 
0.025852141533501752,0.22817678329404584,0.48889071429397174, 35750000000, 
-0.014074566112775489,0.2523519769243212,0.4967726002137294, 35755000000, 
-0.08532303305168973,0.15104008929196971,0.5117736132933608, 35760000000, 
-0.05525773728720113,0.17740622749391532,0.4795650941630138, 35765000000, 
-0.04909105140932875,0.2479171706731248,0.49513531127991484, 35770000000, 
-0.033355121329722494,0.07600209165715802,0.5078739083804212, 35775000000, 
-0.04571657451679596,0.1106486694353857,0.5179334777700996, 35780000000, 
-0.0658028911532278,0.23676135210849797,0.48919119083145945, 35785000000, 
-0.1564029593849039,0.12241768136118414,0.47620450530121805, 35790000000, 
-0.034363700325393695,0.19763730003284258,0.4897423248911687, 35795000000, 
-0.04810267458309887,0.0677739972242762,0.49266066904425626, 35800000000, 
0.26006303580889345,0.1252671205190587,0.49683698939192655, 35805000000, 
0.039633723270151903,0.24450167071965362,0.486472534750013, 35810000000, 
-0.07339742875748369,0.15046906699425694,0.49915165684437834, 35815000000, 
-0.07671206357673556,0.3027497910734668,0.5215661622146224, 35820000000, 
-0.06860907446948208,0.21555222845046068,0.4990010098312129, 35825000000, 
-0.024876516027780602,0.13715483523558164,0.5082628388901446, 35830000000, 
0.021444604894025283,0.3283519665574442,0.503463462134413, 35835000000, 
0.1979940872368446,0.10235530689141212,0.5034434107377805, 35840000000, 
-0.005628588249577472,0.19909447752881915,0.49370211315941104, 35845000000, 
-0.048496123804058336,0.21314085698528004,0.511960627177697, 35850000000, 
-0.08104599531608572,0.08855382634550515,0.5028980978593772, 35855000000, 
-0.06549612354208656,0.25353737154485606,0.49676378174491725, 35860000000, 
-0.08777334919358455,0.10128144089951044,0.49434486271014283, 35865000000, 
-0.07034151505398072,0.22446729709148758,0.5062782869555882, 35870000000, 
-0.025554248124668957,0.22661699266411556,0.48149801791797764, 35875000000, 
-0.14183568720226614,0.11975574885627213,0.5033272727951351, 35880000000, 
0.013676941330390616,0.20772901192827004,0.488094506449411, 35885000000, 
0.016298126949409464,0.2641456927024303,0.4982058960435861, 35890000000, 
-0.037319997839698395,0.004977393476180661,0.5011511164640942, 35895000000, 
-0.054415112961296544,0.18903444797497276,0.5155968478702508, 35900000000, 
0.051413226336863994,0.3347928620273857,0.4931008182823785, 35905000000, 
0.24618221710311639,0.10579482624521526,0.501407235488903, 35910000000, 
-0.08560191870911407,0.21676990113264594,0.5055781683416154, 35915000000, 
0.002300323477694169,0.24480264704628274,0.4870267178884719, 35920000000, 
-0.02935817453880144,0.0703325946797507,0.5144112277023525, 35925000000, 
-0.02138482168135082,0.20940661047884185,0.4934610773211448, 35930000000, 
-0.10479636167382032,0.12003470723052592,0.513565247635102, 35935000000, 
0.22400923600006054,0.22043204282239862,0.5155047827352409, 35940000000, 
0.04348842225992215,0.2903668445087709,0.4933369963228737, 35945000000, 
-0.08516596750551785,0.09286676226105153,0.4920633806067819, 35950000000, 
-0.03816148096685834,0.18037142994962352,0.4926983304590812, 35955000000, 
0.0003457782867589375,0.22728547627995158,0.5058423579953999, 35960000000, 
-0.15292462774156362,0.06810481585388727,0.5070487129366713, 35965000000, 
-0.05374189935385665,0.1944423407889559,0.5128052973450794, 35970000000, 
0.26020061849299847,0.21304807726189012,0.4816760731426753, 35975000000, 
-0.04671093834197068,0.14568271906923314,0.5015416266360688, 35980000000, 
-0.037370569011830355,0.11778466744163188,0.5070337675761237, 35985000000, 
0.02651569169935149,0.27303790018810664,0.4859194305023596, 35990000000, 
-0.07283407453462126,0.13899086259073543,0.5028231136101843, 35995000000, 
-0.0677101709331144,0.2331635321851759,0.49416933400001467, 36000000000, 
-0.0457745610302302,0.20608450258502464,0.49617322048710344, 36005000000, 
